TrialID,SubjID,block,btrial,tord,RT,Selection
1,1,24,1,1,11066,0
2,1,24,2,2,3925,0
3,1,24,3,3,2694,0
4,1,24,4,4,8953,1
5,1,24,5,5,4096,1
6,1,22,1,6,5207,0
7,1,22,2,7,4637,0
8,1,22,3,8,2233,0
9,1,22,4,9,3115,1
10,1,22,5,10,3145,0
11,1,23,1,11,5488,1
12,1,23,2,12,7291,0
13,1,23,3,13,2013,0
14,1,23,4,14,2543,0
15,1,23,5,15,6960,0
16,1,12,1,16,5468,1
17,1,12,2,17,3685,1
18,1,12,3,18,2313,1
19,1,12,4,19,1842,1
20,1,12,5,20,6739,0
21,1,3,1,21,12108,1
22,1,3,2,22,5458,0
23,1,3,3,23,1652,1
24,1,3,4,24,3374,0
25,1,3,5,25,6730,0
26,1,17,1,26,4307,0
27,1,17,2,27,10105,1
28,1,17,3,28,2383,1
29,1,17,4,29,2514,1
30,1,17,5,30,2103,0
31,1,6,1,31,5477,0
32,1,6,2,32,6840,1
33,1,6,3,33,1542,1
34,1,6,4,34,2284,1
35,1,6,5,35,6499,0
36,1,13,1,36,5178,1
37,1,13,2,37,5437,1
38,1,13,3,38,2093,1
39,1,13,4,39,4507,1
40,1,13,5,40,4306,1
41,1,9,1,41,4266,0
42,1,9,2,42,7691,1
43,1,9,3,43,1963,0
44,1,9,4,44,2984,0
45,1,9,5,45,13139,1
46,1,11,1,46,6920,1
47,1,11,2,47,11847,1
48,1,11,3,48,3435,0
49,1,11,4,49,5558,1
50,1,11,5,50,8823,0
51,1,10,1,51,7621,0
52,1,10,2,52,4466,0
53,1,10,3,53,2463,1
54,1,10,4,54,2533,1
55,1,10,5,55,8743,0
56,1,18,1,56,7371,1
57,1,18,2,57,4146,1
58,1,18,3,58,3325,0
59,1,18,4,59,4397,1
60,1,18,5,60,5148,0
61,1,21,1,61,9143,0
62,1,21,2,62,7551,1
63,1,21,3,63,1572,1
64,1,21,4,64,4376,0
65,1,21,5,65,4266,1
66,1,5,1,66,4686,1
67,1,5,2,67,5848,1
68,1,5,3,68,2314,0
69,1,5,4,69,2523,1
70,1,5,5,70,7030,1
71,1,14,1,71,6159,0
72,1,14,2,72,9414,0
73,1,14,3,73,2032,0
74,1,14,4,74,4096,0
75,1,14,5,75,4286,0
76,1,7,1,76,10495,1
77,1,7,2,77,7641,1
78,1,7,3,78,2123,1
79,1,7,4,79,4096,0
80,1,7,5,80,8712,0
81,1,19,1,81,6779,1
82,1,19,2,82,8642,0
83,1,19,3,83,2494,0
84,1,19,4,84,4357,0
85,1,19,5,85,4466,0
86,1,15,1,86,6740,1
87,1,15,2,87,3455,1
88,1,15,3,88,1732,0
89,1,15,4,89,1862,0
90,1,15,5,90,3846,0
91,1,2,1,91,7110,1
92,1,2,2,92,5358,0
93,1,2,3,93,2003,0
94,1,2,4,94,2374,0
95,1,2,5,95,10475,1
96,1,1,1,96,4166,1
97,1,1,2,97,5638,1
98,1,1,3,98,2744,0
99,1,1,4,99,2613,1
100,1,1,5,100,7501,0
101,1,8,1,101,3035,1
102,1,8,2,102,3626,0
103,1,8,3,103,1612,1
104,1,8,4,104,1842,1
105,1,8,5,105,6790,1
106,1,16,1,106,3916,1
107,1,16,2,107,3776,1
108,1,16,3,108,1402,1
109,1,16,4,109,2733,1
110,1,16,5,110,3435,1
111,1,20,1,111,6910,0
112,1,20,2,112,4166,0
113,1,20,3,113,2183,0
114,1,20,4,114,2544,0
115,1,20,5,115,2333,1
116,1,4,1,116,2865,0
117,1,4,2,117,6670,0
118,1,4,3,118,1663,1
119,1,4,4,119,2304,0
120,1,4,5,120,6509,1
121,2,21,1,1,11897,0
122,2,21,2,2,9173,1
123,2,21,3,3,14400,1
124,2,21,4,4,28070,0
125,2,21,5,5,4596,1
126,2,12,1,6,5237,1
127,2,12,2,7,5197,1
128,2,12,3,8,4857,1
129,2,12,4,9,2924,1
130,2,12,5,10,6790,0
131,2,24,1,11,7721,0
132,2,24,2,12,3866,0
133,2,24,3,13,1733,0
134,2,24,4,14,3816,0
135,2,24,5,15,3895,1
136,2,17,1,16,4066,0
137,2,17,2,17,5107,1
138,2,17,3,18,2984,1
139,2,17,4,19,2384,1
140,2,17,5,20,2484,0
141,2,14,1,21,6168,0
142,2,14,2,22,5037,0
143,2,14,3,23,2504,0
144,2,14,4,24,3775,0
145,2,14,5,25,4496,0
146,2,3,1,26,7290,1
147,2,3,2,27,4236,0
148,2,3,3,28,3134,1
149,2,3,4,29,5548,0
150,2,3,5,30,6359,0
151,2,9,1,31,6700,0
152,2,9,2,32,6079,1
153,2,9,3,33,2424,0
154,2,9,4,34,2073,0
155,2,9,5,35,8512,1
156,2,11,1,36,5458,1
157,2,11,2,37,11537,1
158,2,11,3,38,2644,0
159,2,11,4,39,2664,1
160,2,11,5,40,9254,0
161,2,6,1,41,3816,0
162,2,6,2,42,3094,1
163,2,6,3,43,2183,1
164,2,6,4,44,2333,1
165,2,6,5,45,6490,0
166,2,22,1,46,5157,0
167,2,22,2,47,4547,0
168,2,22,3,48,1993,0
169,2,22,4,49,3235,1
170,2,22,5,50,3094,0
171,2,15,1,51,6459,1
172,2,15,2,52,3535,1
173,2,15,3,53,1592,0
174,2,15,4,54,2353,0
175,2,15,5,55,3495,0
176,2,2,1,56,6730,1
177,2,2,2,57,5208,0
178,2,2,3,58,2073,0
179,2,2,4,59,2684,0
180,2,2,5,60,8432,1
181,2,13,1,61,5447,1
182,2,13,2,62,5908,1
183,2,13,3,63,1803,1
184,2,13,4,64,3355,1
185,2,13,5,65,3856,1
186,2,8,1,66,4095,1
187,2,8,2,67,3295,0
188,2,8,3,68,2254,1
189,2,8,4,69,1973,1
190,2,8,5,70,8652,0
191,2,18,1,71,4777,1
192,2,18,2,72,3264,1
193,2,18,3,73,2273,0
194,2,18,4,74,3445,1
195,2,18,5,75,3495,0
196,2,23,1,76,4757,1
197,2,23,2,77,4055,0
198,2,23,3,78,1823,0
199,2,23,4,79,2013,0
200,2,23,5,80,5228,0
201,2,5,1,81,8483,1
202,2,5,2,82,9213,1
203,2,5,3,83,1813,0
204,2,5,4,84,3855,1
205,2,5,5,85,7341,1
206,2,4,1,86,5508,0
207,2,4,2,87,7431,0
208,2,4,3,88,2153,1
209,2,4,4,89,2163,0
210,2,4,5,90,7030,1
211,2,20,1,91,6820,0
212,2,20,2,92,7200,0
213,2,20,3,93,2333,0
214,2,20,4,94,3124,0
215,2,20,5,95,2974,1
216,2,19,1,96,6290,1
217,2,19,2,97,8472,0
218,2,19,3,98,1893,0
219,2,19,4,99,4507,0
220,2,19,5,100,5207,0
221,2,7,1,101,9063,1
222,2,7,2,102,5808,1
223,2,7,3,103,2563,1
224,2,7,4,104,2613,0
225,2,7,5,105,8723,0
226,2,16,1,106,3685,1
227,2,16,2,107,3064,1
228,2,16,3,108,1542,1
229,2,16,4,109,2374,1
230,2,16,5,110,3926,1
231,2,1,1,111,7140,1
232,2,1,2,112,4786,1
233,2,1,3,113,1582,0
234,2,1,4,114,2814,1
235,2,1,5,115,6139,0
236,2,10,1,116,5137,0
237,2,10,2,117,3955,0
238,2,10,3,118,1552,1
239,2,10,4,119,2183,1
240,2,10,5,120,9334,0
241,3,20,1,1,6900,0
242,3,20,2,2,5198,0
243,3,20,3,3,3645,0
244,3,20,4,4,3715,0
245,3,20,5,5,2664,1
246,3,12,1,6,3284,1
247,3,12,2,7,3716,1
248,3,12,3,8,2624,1
249,3,12,4,9,1943,1
250,3,12,5,10,6279,0
251,3,23,1,11,4456,1
252,3,23,2,12,7291,0
253,3,23,3,13,2003,0
254,3,23,4,14,2003,0
255,3,23,5,15,4056,0
256,3,7,1,16,7802,1
257,3,7,2,17,4987,1
258,3,7,3,18,2554,1
259,3,7,4,19,3505,0
260,3,7,5,20,9063,0
261,3,24,1,21,10575,0
262,3,24,2,22,3165,0
263,3,24,3,23,1182,0
264,3,24,4,24,3605,0
265,3,24,5,25,3966,1
266,3,1,1,26,5057,1
267,3,1,2,27,5247,1
268,3,1,3,28,2895,0
269,3,1,4,29,2413,1
270,3,1,5,30,6299,0
271,3,6,1,31,4887,0
272,3,6,2,32,6860,1
273,3,6,3,33,1572,1
274,3,6,4,34,1942,1
275,3,6,5,35,6440,0
276,3,15,1,36,6289,0
277,3,15,2,37,4146,1
278,3,15,3,38,1623,0
279,3,15,4,39,2914,0
280,3,15,5,40,3505,0
281,3,2,1,41,4998,1
282,3,2,2,42,6139,0
283,3,2,3,43,2854,0
284,3,2,4,44,2714,0
285,3,2,5,45,8842,1
286,3,17,1,46,4186,0
287,3,17,2,47,5127,1
288,3,17,3,48,2513,1
289,3,17,4,49,1913,1
290,3,17,5,50,2012,0
291,3,3,1,51,8061,1
292,3,3,2,52,5819,0
293,3,3,3,53,1983,1
294,3,3,4,54,3375,0
295,3,3,5,55,7541,0
296,3,9,1,56,4687,0
297,3,9,2,57,7601,1
298,3,9,3,58,2053,0
299,3,9,4,59,2173,0
300,3,9,5,60,7951,1
301,3,14,1,61,5568,0
302,3,14,2,62,4647,0
303,3,14,3,63,1943,0
304,3,14,4,64,3925,0
305,3,14,5,65,3986,0
306,3,10,1,66,5939,0
307,3,10,2,67,3805,0
308,3,10,3,68,2423,1
309,3,10,4,69,1993,1
310,3,10,5,70,8422,0
311,3,16,1,71,6740,1
312,3,16,2,72,3485,1
313,3,16,3,73,2083,1
314,3,16,4,74,2824,1
315,3,16,5,75,3685,1
316,3,13,1,76,4917,1
317,3,13,2,77,4727,1
318,3,13,3,78,2213,1
319,3,13,4,79,2504,1
320,3,13,5,80,3395,1
321,3,4,1,81,4396,0
322,3,4,2,82,6900,0
323,3,4,3,83,3605,1
324,3,4,4,84,1772,0
325,3,4,5,85,8081,1
326,3,19,1,86,5908,1
327,3,19,2,87,8032,1
328,3,19,3,88,2113,0
329,3,19,4,89,4436,0
330,3,19,5,90,4196,0
331,3,22,1,91,4576,0
332,3,22,2,92,4407,0
333,3,22,3,93,2003,0
334,3,22,4,94,2714,1
335,3,22,5,95,3164,0
336,3,5,1,96,8122,1
337,3,5,2,97,4797,1
338,3,5,3,98,2955,0
339,3,5,4,99,2184,1
340,3,5,5,100,7210,1
341,3,11,1,101,7000,1
342,3,11,2,102,5097,1
343,3,11,3,103,2604,0
344,3,11,4,104,3545,1
345,3,11,5,105,8593,0
346,3,21,1,106,9214,0
347,3,21,2,107,7751,1
348,3,21,3,108,1552,1
349,3,21,4,109,4797,0
350,3,21,5,110,4356,1
351,3,18,1,111,5207,1
352,3,18,2,112,3314,1
353,3,18,3,113,2233,0
354,3,18,4,114,4196,1
355,3,18,5,115,4407,0
356,3,8,1,116,2954,1
357,3,8,2,117,2654,0
358,3,8,3,118,2153,1
359,3,8,4,119,1652,1
360,3,8,5,120,7861,1
361,4,1,1,1,5868,1
362,4,1,2,2,7151,1
363,4,1,3,3,2523,0
364,4,1,4,4,2393,1
365,4,1,5,5,8632,0
366,4,24,1,6,6850,0
367,4,24,2,7,3455,0
368,4,24,3,8,1573,0
369,4,24,4,9,3415,0
370,4,24,5,10,3856,1
371,4,21,1,11,8151,0
372,4,21,2,12,7551,1
373,4,21,3,13,1843,1
374,4,21,4,14,3966,0
375,4,21,5,15,3084,1
376,4,9,1,16,6479,0
377,4,9,2,17,6609,1
378,4,9,3,18,2213,0
379,4,9,4,19,1963,0
380,4,9,5,20,13540,1
381,4,6,1,21,4046,0
382,4,6,2,22,2935,1
383,4,6,3,23,1893,1
384,4,6,4,24,2444,1
385,4,6,5,25,6259,0
386,4,19,1,26,7301,1
387,4,19,2,27,8823,0
388,4,19,3,28,1913,0
389,4,19,4,29,4036,0
390,4,19,5,30,4237,0
391,4,11,1,31,6119,1
392,4,11,2,32,9834,0
393,4,11,3,33,3535,1
394,4,11,4,34,2383,1
395,4,11,5,35,8061,0
396,4,10,1,36,4817,0
397,4,10,2,37,4366,0
398,4,10,3,38,1883,1
399,4,10,4,39,2614,1
400,4,10,5,40,11036,0
401,4,18,1,41,5568,1
402,4,18,2,42,3976,1
403,4,18,3,43,2413,0
404,4,18,4,44,3746,1
405,4,18,5,45,3885,0
406,4,16,1,46,5568,1
407,4,16,2,47,3435,1
408,4,16,3,48,1843,1
409,4,16,4,49,2384,1
410,4,16,5,50,3455,1
411,4,23,1,51,4517,1
412,4,23,2,52,7470,0
413,4,23,3,53,1862,0
414,4,23,4,54,2032,0
415,4,23,5,55,4476,0
416,4,12,1,56,4977,1
417,4,12,2,57,3735,1
418,4,12,3,58,1732,1
419,4,12,4,59,2273,1
420,4,12,5,60,6469,0
421,4,15,1,61,6229,1
422,4,15,2,62,3535,1
423,4,15,3,63,1683,0
424,4,15,4,64,2103,0
425,4,15,5,65,3285,0
426,4,14,1,66,7360,0
427,4,14,2,67,8432,0
428,4,14,3,68,2383,0
429,4,14,4,69,3175,0
430,4,14,5,70,4897,0
431,4,3,1,71,7471,1
432,4,3,2,72,5108,0
433,4,3,3,73,2784,1
434,4,3,4,74,4827,0
435,4,3,5,75,6730,0
436,4,5,1,76,11166,1
437,4,5,2,77,6510,1
438,4,5,3,78,1963,0
439,4,5,4,79,2954,1
440,4,5,5,80,7100,1
441,4,7,1,81,8081,1
442,4,7,2,82,6019,1
443,4,7,3,83,2854,1
444,4,7,4,84,2434,0
445,4,7,5,85,8582,0
446,4,22,1,86,5368,0
447,4,22,2,87,5357,0
448,4,22,3,88,2093,0
449,4,22,4,89,3305,1
450,4,22,5,90,3094,0
451,4,17,1,91,3885,0
452,4,17,2,92,5318,1
453,4,17,3,93,2363,1
454,4,17,4,94,1723,1
455,4,17,5,95,1862,0
456,4,2,1,96,6519,1
457,4,2,2,97,5528,0
458,4,2,3,98,2393,0
459,4,2,4,99,2073,0
460,4,2,5,100,7111,1
461,4,20,1,101,7260,0
462,4,20,2,102,7671,0
463,4,20,3,103,2544,0
464,4,20,4,104,2845,0
465,4,20,5,105,2754,1
466,4,13,1,106,5208,1
467,4,13,2,107,5528,1
468,4,13,3,108,1973,1
469,4,13,4,109,3675,1
470,4,13,5,110,3355,1
471,4,8,1,111,7721,0
472,4,8,2,112,4326,0
473,4,8,3,113,2174,1
474,4,8,4,114,3345,1
475,4,8,5,115,9854,1
476,4,4,1,116,7561,0
477,4,4,2,117,7981,0
478,4,4,3,118,2203,1
479,4,4,4,119,2453,0
480,4,4,5,120,7511,1
481,5,14,1,1,7351,0
482,5,14,2,2,5408,0
483,5,14,3,3,3605,0
484,5,14,4,4,4166,0
485,5,14,5,5,5038,0
486,5,2,1,6,5007,1
487,5,2,2,7,4947,0
488,5,2,3,8,3055,0
489,5,2,4,9,2865,0
490,5,2,5,10,10646,1
491,5,15,1,11,5197,0
492,5,15,2,12,4016,1
493,5,15,3,13,1673,0
494,5,15,4,14,2984,0
495,5,15,5,15,3275,0
496,5,23,1,16,4787,1
497,5,23,2,17,7671,0
498,5,23,3,18,2153,0
499,5,23,4,19,2774,0
500,5,23,5,20,4998,0
501,5,16,1,21,3645,1
502,5,16,2,22,3515,1
503,5,16,3,23,2013,1
504,5,16,4,24,3024,1
505,5,16,5,25,3856,1
506,5,12,1,26,4386,1
507,5,12,2,27,3866,1
508,5,12,3,28,2684,1
509,5,12,4,29,2033,1
510,5,12,5,30,6430,0
511,5,8,1,31,3184,1
512,5,8,2,32,2984,0
513,5,8,3,33,2023,1
514,5,8,4,34,2073,1
515,5,8,5,35,8983,0
516,5,18,1,36,4607,1
517,5,18,2,37,3825,1
518,5,18,3,38,2303,0
519,5,18,4,39,3225,1
520,5,18,5,40,3856,0
521,5,7,1,41,12007,0
522,5,7,2,42,4496,1
523,5,7,3,43,3215,1
524,5,7,4,44,3895,0
525,5,7,5,45,8472,0
526,5,5,1,46,4486,1
527,5,5,2,47,4857,1
528,5,5,3,48,2584,0
529,5,5,4,49,2273,1
530,5,5,5,50,7060,1
531,5,17,1,51,3986,0
532,5,17,2,52,4206,1
533,5,17,3,53,2323,1
534,5,17,4,54,2394,1
535,5,17,5,55,2284,0
536,5,9,1,56,4186,0
537,5,9,2,57,6269,1
538,5,9,3,58,2083,0
539,5,9,4,59,1923,0
540,5,9,5,60,7821,1
541,5,13,1,61,5598,1
542,5,13,2,62,5778,1
543,5,13,3,63,2174,1
544,5,13,4,64,4236,1
545,5,13,5,65,3956,1
546,5,4,1,66,3234,0
547,5,4,2,67,7350,0
548,5,4,3,68,4897,1
549,5,4,4,69,2764,0
550,5,4,5,70,6339,1
551,5,24,1,71,9453,0
552,5,24,2,72,3535,0
553,5,24,3,73,1612,0
554,5,24,4,74,3996,0
555,5,24,5,75,3725,1
556,5,10,1,76,5928,0
557,5,10,2,77,4276,0
558,5,10,3,78,2814,1
559,5,10,4,79,2464,1
560,5,10,5,80,8783,0
561,5,11,1,81,7121,1
562,5,11,2,82,4296,1
563,5,11,3,83,2604,0
564,5,11,4,84,5047,1
565,5,11,5,85,6339,0
566,5,22,1,86,4707,0
567,5,22,2,87,4617,0
568,5,22,3,88,2263,0
569,5,22,4,89,3205,1
570,5,22,5,90,3304,0
571,5,21,1,91,9393,0
572,5,21,2,92,7140,1
573,5,21,3,93,1902,1
574,5,21,4,94,3736,0
575,5,21,5,95,4246,1
576,5,19,1,96,6159,1
577,5,19,2,97,7130,0
578,5,19,3,98,2263,0
579,5,19,4,99,4547,0
580,5,19,5,100,4126,0
581,5,20,1,101,5708,0
582,5,20,2,102,3655,0
583,5,20,3,103,2584,0
584,5,20,4,104,3756,0
585,5,20,5,105,3104,1
586,5,3,1,106,9023,1
587,5,3,2,107,5488,0
588,5,3,3,108,1742,1
589,5,3,4,109,3005,0
590,5,3,5,110,6760,0
591,5,1,1,111,4256,1
592,5,1,2,112,4977,1
593,5,1,3,113,2653,0
594,5,1,4,114,2604,1
595,5,1,5,115,6219,0
596,5,6,1,116,4556,0
597,5,6,2,117,6409,1
598,5,6,3,118,1733,1
599,5,6,4,119,1882,1
600,5,6,5,120,6569,0
601,6,9,1,1,6319,0
602,6,9,2,2,8332,1
603,6,9,3,3,3495,0
604,6,9,4,4,2394,0
605,6,9,5,5,7320,1
606,6,21,1,6,18817,0
607,6,21,2,7,7701,1
608,6,21,3,8,2003,1
609,6,21,4,9,5558,0
610,6,21,5,10,4046,1
611,6,22,1,11,4727,0
612,6,22,2,12,4486,0
613,6,22,3,13,2083,0
614,6,22,4,14,2724,1
615,6,22,5,15,2764,0
616,6,10,1,16,4226,0
617,6,10,2,17,3485,0
618,6,10,3,18,1733,1
619,6,10,4,19,2754,1
620,6,10,5,20,13299,0
621,6,5,1,21,7992,1
622,6,5,2,22,6029,1
623,6,5,3,23,1742,0
624,6,5,4,24,3105,1
625,6,5,5,25,7110,1
626,6,13,1,26,5467,1
627,6,13,2,27,5288,1
628,6,13,3,28,1923,1
629,6,13,4,29,3084,1
630,6,13,5,30,3655,1
631,6,11,1,31,5918,1
632,6,11,2,32,6529,1
633,6,11,3,33,2103,0
634,6,11,4,34,2473,1
635,6,11,5,35,7541,0
636,6,2,1,36,6159,1
637,6,2,2,37,3685,0
638,6,2,3,38,2213,0
639,6,2,4,39,2444,0
640,6,2,5,40,7070,1
641,6,23,1,41,4506,1
642,6,23,2,42,6970,0
643,6,23,3,43,1612,0
644,6,23,4,44,1853,0
645,6,23,5,45,4686,0
646,6,16,1,46,4496,1
647,6,16,2,47,3605,1
648,6,16,3,48,1712,1
649,6,16,4,49,2384,1
650,6,16,5,50,3665,1
651,6,12,1,51,4867,1
652,6,12,2,52,4146,1
653,6,12,3,53,1782,1
654,6,12,4,54,2594,1
655,6,12,5,55,6529,0
656,6,7,1,56,7771,1
657,6,7,2,57,5087,1
658,6,7,3,58,2304,1
659,6,7,4,59,3585,1
660,6,7,5,60,8742,0
661,6,20,1,61,6029,0
662,6,20,2,62,3615,0
663,6,20,3,63,2213,0
664,6,20,4,64,3055,0
665,6,20,5,65,2834,1
666,6,17,1,66,3505,0
667,6,17,2,67,5518,1
668,6,17,3,68,2664,1
669,6,17,4,69,1762,1
670,6,17,5,70,1893,0
671,6,3,1,71,6490,1
672,6,3,2,72,4466,0
673,6,3,3,73,2704,1
674,6,3,4,74,4376,0
675,6,3,5,75,6749,0
676,6,1,1,76,6098,1
677,6,1,2,77,4937,1
678,6,1,3,78,1683,0
679,6,1,4,79,2283,1
680,6,1,5,80,6670,0
681,6,8,1,81,5178,1
682,6,8,2,82,3836,0
683,6,8,3,83,1692,1
684,6,8,4,84,2384,1
685,6,8,5,85,8592,0
686,6,24,1,86,7020,0
687,6,24,2,87,3615,0
688,6,24,3,88,1312,0
689,6,24,4,89,2123,0
690,6,24,5,90,3855,1
691,6,18,1,91,5097,1
692,6,18,2,92,3555,1
693,6,18,3,93,1983,0
694,6,18,4,94,3235,1
695,6,18,5,95,3816,0
696,6,15,1,96,6319,1
697,6,15,2,97,3055,1
698,6,15,3,98,1453,0
699,6,15,4,99,1803,0
700,6,15,5,100,3495,0
701,6,19,1,101,6159,1
702,6,19,2,102,8733,0
703,6,19,3,103,1833,0
704,6,19,4,104,3965,0
705,6,19,5,105,5158,0
706,6,4,1,106,5778,0
707,6,4,2,107,7111,0
708,6,4,3,108,1683,1
709,6,4,4,109,2163,0
710,6,4,5,110,6890,1
711,6,14,1,111,5958,0
712,6,14,2,112,4847,0
713,6,14,3,113,2043,0
714,6,14,4,114,2904,0
715,6,14,5,115,4436,0
716,6,6,1,116,4627,0
717,6,6,2,117,3084,1
718,6,6,3,118,2073,1
719,6,6,4,119,2864,1
720,6,6,5,120,6329,0
721,7,11,1,1,11557,1
722,7,11,2,2,5508,1
723,7,11,3,3,3815,0
724,7,11,4,4,6750,1
725,7,11,5,5,14110,0
726,7,24,1,6,8963,0
727,7,24,2,7,4367,0
728,7,24,3,8,2023,0
729,7,24,4,9,10875,0
730,7,24,5,10,5097,1
731,7,2,1,11,7251,1
732,7,2,2,12,6990,0
733,7,2,3,13,3244,0
734,7,2,4,14,3315,0
735,7,2,5,15,8502,1
736,7,12,1,16,4827,1
737,7,12,2,17,5077,1
738,7,12,3,18,5398,1
739,7,12,4,19,2754,1
740,7,12,5,20,7531,0
741,7,22,1,21,7822,0
742,7,22,2,22,5037,0
743,7,22,3,23,2554,0
744,7,22,4,24,5258,1
745,7,22,5,25,4146,0
746,7,15,1,26,7250,1
747,7,15,2,27,4667,1
748,7,15,3,28,2103,0
749,7,15,4,29,2704,0
750,7,15,5,30,3825,0
751,7,4,1,31,7871,0
752,7,4,2,32,8312,0
753,7,4,3,33,5778,1
754,7,4,4,34,3425,0
755,7,4,5,35,11246,1
756,7,3,1,36,11687,1
757,7,3,2,37,5698,0
758,7,3,3,38,1712,1
759,7,3,4,39,3916,0
760,7,3,5,40,7991,0
761,7,13,1,41,5518,1
762,7,13,2,42,6820,1
763,7,13,3,43,4016,1
764,7,13,4,44,5087,1
765,7,13,5,45,4417,1
766,7,18,1,46,7350,1
767,7,18,2,47,4166,1
768,7,18,3,48,2563,0
769,7,18,4,49,4186,1
770,7,18,5,50,5108,0
771,7,5,1,51,6530,1
772,7,5,2,52,6249,1
773,7,5,3,53,2553,0
774,7,5,4,54,2954,1
775,7,5,5,55,9815,1
776,7,17,1,56,6920,0
777,7,17,2,57,9083,1
778,7,17,3,58,2553,1
779,7,17,4,59,1983,1
780,7,17,5,60,2634,0
781,7,8,1,61,4897,1
782,7,8,2,62,3485,0
783,7,8,3,63,2353,1
784,7,8,4,64,2183,1
785,7,8,5,65,10305,0
786,7,19,1,66,15702,1
787,7,19,2,67,12368,0
788,7,19,3,68,2664,0
789,7,19,4,69,6539,0
790,7,19,5,70,6159,0
791,7,7,1,71,9343,1
792,7,7,2,72,6168,1
793,7,7,3,73,2263,1
794,7,7,4,74,4557,0
795,7,7,5,75,10325,0
796,7,6,1,76,6249,0
797,7,6,2,77,7911,1
798,7,6,3,78,1873,1
799,7,6,4,79,2474,1
800,7,6,5,80,8743,0
801,7,21,1,81,15672,0
802,7,21,2,82,8903,1
803,7,21,3,83,2073,1
804,7,21,4,84,5358,0
805,7,21,5,85,4317,1
806,7,14,1,86,10354,0
807,7,14,2,87,10555,0
808,7,14,3,88,1902,0
809,7,14,4,89,4997,0
810,7,14,5,90,4086,0
811,7,1,1,91,4928,1
812,7,1,2,92,6279,1
813,7,1,3,93,3675,0
814,7,1,4,94,3595,1
815,7,1,5,95,9404,0
816,7,20,1,96,6770,0
817,7,20,2,97,6379,0
818,7,20,3,98,3515,0
819,7,20,4,99,4176,0
820,7,20,5,100,4507,1
821,7,10,1,101,8132,0
822,7,10,2,102,5588,0
823,7,10,3,103,3024,1
824,7,10,4,104,2383,1
825,7,10,5,105,15212,0
826,7,16,1,106,7401,1
827,7,16,2,107,4156,1
828,7,16,3,108,2704,1
829,7,16,4,109,2784,1
830,7,16,5,110,4496,1
831,7,9,1,111,4266,0
832,7,9,2,112,5227,1
833,7,9,3,113,2945,0
834,7,9,4,114,2123,0
835,7,9,5,115,7791,1
836,7,23,1,116,5387,1
837,7,23,2,117,9033,0
838,7,23,3,118,1512,0
839,7,23,4,119,1953,0
840,7,23,5,120,4506,0
841,8,20,1,1,6720,0
842,8,20,2,2,3915,0
843,8,20,3,3,6169,0
844,8,20,4,4,4397,0
845,8,20,5,5,5227,1
846,8,19,1,6,6489,1
847,8,19,2,7,8442,0
848,8,19,3,8,3015,0
849,8,19,4,9,5107,0
850,8,19,5,10,5097,0
851,8,6,1,11,4216,0
852,8,6,2,12,3184,1
853,8,6,3,13,2673,1
854,8,6,4,14,2984,1
855,8,6,5,15,6319,0
856,8,8,1,16,6449,1
857,8,8,2,17,3606,0
858,8,8,3,18,1873,1
859,8,8,4,19,2053,1
860,8,8,5,20,9494,1
861,8,12,1,21,5368,1
862,8,12,2,22,4086,1
863,8,12,3,23,1802,1
864,8,12,4,24,2263,1
865,8,12,5,25,7150,0
866,8,14,1,26,5348,0
867,8,14,2,27,4797,0
868,8,14,3,28,2664,0
869,8,14,4,29,3745,0
870,8,14,5,30,4396,0
871,8,2,1,31,6239,1
872,8,2,2,32,4296,0
873,8,2,3,33,2905,0
874,8,2,4,34,2123,0
875,8,2,5,35,7521,1
876,8,11,1,36,5308,1
877,8,11,2,37,10676,0
878,8,11,3,38,3585,1
879,8,11,4,39,3305,1
880,8,11,5,40,8793,0
881,8,23,1,41,4016,1
882,8,23,2,42,7311,0
883,8,23,3,43,1963,0
884,8,23,4,44,2163,0
885,8,23,5,45,3756,0
886,8,21,1,46,14811,0
887,8,21,2,47,7251,1
888,8,21,3,48,1572,1
889,8,21,4,49,4496,0
890,8,21,5,50,4316,1
891,8,10,1,51,4727,0
892,8,10,2,52,3815,0
893,8,10,3,53,1843,1
894,8,10,4,54,3254,1
895,8,10,5,55,9284,0
896,8,24,1,56,7691,0
897,8,24,2,57,3234,0
898,8,24,3,58,1282,0
899,8,24,4,59,3865,0
900,8,24,5,60,3766,1
901,8,15,1,61,6860,1
902,8,15,2,62,3195,1
903,8,15,3,63,1322,0
904,8,15,4,64,1863,0
905,8,15,5,65,3545,0
906,8,17,1,66,3726,0
907,8,17,2,67,4156,1
908,8,17,3,68,2073,1
909,8,17,4,69,1773,1
910,8,17,5,70,2234,0
911,8,4,1,71,6609,0
912,8,4,2,72,6980,0
913,8,4,3,73,1783,1
914,8,4,4,74,2124,0
915,8,4,5,75,6329,1
916,8,16,1,76,6859,0
917,8,16,2,77,4346,1
918,8,16,3,78,1662,1
919,8,16,4,79,2774,1
920,8,16,5,80,3636,1
921,8,13,1,81,4747,1
922,8,13,2,82,5568,1
923,8,13,3,83,1812,1
924,8,13,4,84,3926,1
925,8,13,5,85,3535,1
926,8,1,1,86,5748,1
927,8,1,2,87,4938,1
928,8,1,3,88,1612,0
929,8,1,4,89,2373,1
930,8,1,5,90,6199,0
931,8,18,1,91,4957,1
932,8,18,2,92,3675,1
933,8,18,3,93,2313,0
934,8,18,4,94,3325,1
935,8,18,5,95,3585,0
936,8,22,1,96,4306,0
937,8,22,2,97,4766,0
938,8,22,3,98,1682,0
939,8,22,4,99,2774,1
940,8,22,5,100,3114,0
941,8,9,1,101,6980,0
942,8,9,2,102,6149,1
943,8,9,3,103,2013,0
944,8,9,4,104,1903,0
945,8,9,5,105,8112,1
946,8,7,1,106,7641,1
947,8,7,2,107,6098,1
948,8,7,3,108,3074,1
949,8,7,4,109,2373,0
950,8,7,5,110,7881,0
951,8,3,1,111,6729,1
952,8,3,2,112,4387,0
953,8,3,3,113,2373,1
954,8,3,4,114,3024,0
955,8,3,5,115,6940,0
956,8,5,1,116,10285,1
957,8,5,2,117,6800,1
958,8,5,3,118,1682,0
959,8,5,4,119,2584,1
960,8,5,5,120,8332,1
961,9,8,1,1,3194,1
962,9,8,2,2,3385,0
963,9,8,3,3,2494,1
964,9,8,4,4,2063,1
965,9,8,5,5,9333,0
966,9,13,1,6,4877,1
967,9,13,2,7,5308,1
968,9,13,3,8,2764,1
969,9,13,4,9,3875,1
970,9,13,5,10,3655,1
971,9,24,1,11,6950,0
972,9,24,2,12,3555,0
973,9,24,3,13,1743,0
974,9,24,4,14,3866,0
975,9,24,5,15,3575,1
976,9,23,1,16,4045,1
977,9,23,2,17,6710,0
978,9,23,3,18,2063,0
979,9,23,4,19,2444,0
980,9,23,5,20,4116,0
981,9,17,1,21,3915,0
982,9,17,2,22,5087,1
983,9,17,3,23,2363,1
984,9,17,4,24,2043,1
985,9,17,5,25,2053,0
986,9,10,1,26,6689,0
987,9,10,2,27,3605,0
988,9,10,3,28,2674,1
989,9,10,4,29,2424,1
990,9,10,5,30,6920,0
991,9,15,1,31,4787,1
992,9,15,2,32,2944,1
993,9,15,3,33,1472,0
994,9,15,4,34,1992,0
995,9,15,5,35,4427,0
996,9,11,1,36,6840,1
997,9,11,2,37,4657,1
998,9,11,3,38,2153,0
999,9,11,4,39,2243,1
1000,9,11,5,40,6570,0
1001,9,18,1,41,4657,1
1002,9,18,2,42,3585,1
1003,9,18,3,43,2473,0
1004,9,18,4,44,3135,1
1005,9,18,5,45,3676,0
1006,9,22,1,46,5027,0
1007,9,22,2,47,4657,0
1008,9,22,3,48,1883,0
1009,9,22,4,49,2574,1
1010,9,22,5,50,3034,0
1011,9,5,1,51,4316,1
1012,9,5,2,52,4206,1
1013,9,5,3,53,2604,0
1014,9,5,4,54,2204,1
1015,9,5,5,55,6930,1
1016,9,1,1,56,4336,1
1017,9,1,2,57,5177,1
1018,9,1,3,58,2614,0
1019,9,1,4,59,2674,1
1020,9,1,5,60,6259,0
1021,9,3,1,61,6960,1
1022,9,3,2,62,3625,0
1023,9,3,3,63,1582,1
1024,9,3,4,64,2453,0
1025,9,3,5,65,6189,0
1026,9,16,1,66,4327,1
1027,9,16,2,67,3315,1
1028,9,16,3,68,1833,1
1029,9,16,4,69,2343,1
1030,9,16,5,70,4016,1
1031,9,20,1,71,5848,0
1032,9,20,2,72,3706,0
1033,9,20,3,73,2023,0
1034,9,20,4,74,2674,0
1035,9,20,5,75,2474,1
1036,9,19,1,76,6449,1
1037,9,19,2,77,11206,0
1038,9,19,3,78,1852,0
1039,9,19,4,79,4336,0
1040,9,19,5,80,4206,0
1041,9,9,1,81,4336,0
1042,9,9,2,82,7440,1
1043,9,9,3,83,2354,0
1044,9,9,4,84,2043,0
1045,9,9,5,85,7371,1
1046,9,14,1,86,5057,0
1047,9,14,2,87,4376,0
1048,9,14,3,88,2163,0
1049,9,14,4,89,3625,0
1050,9,14,5,90,3886,0
1051,9,7,1,91,8322,0
1052,9,7,2,92,4827,1
1053,9,7,3,93,2564,1
1054,9,7,4,94,4427,0
1055,9,7,5,95,8542,0
1056,9,12,1,96,3405,1
1057,9,12,2,97,3515,1
1058,9,12,3,98,2453,1
1059,9,12,4,99,1572,1
1060,9,12,5,100,6319,0
1061,9,6,1,101,4967,0
1062,9,6,2,102,6479,1
1063,9,6,3,103,1532,1
1064,9,6,4,104,1863,1
1065,9,6,5,105,6519,0
1066,9,2,1,106,5128,1
1067,9,2,2,107,5719,0
1068,9,2,3,108,2364,0
1069,9,2,4,109,2673,0
1070,9,2,5,110,8022,0
1071,9,21,1,111,10655,0
1072,9,21,2,112,7971,1
1073,9,21,3,113,1852,1
1074,9,21,4,114,4286,0
1075,9,21,5,115,4266,1
1076,9,4,1,116,3195,0
1077,9,4,2,117,7171,0
1078,9,4,3,118,5287,1
1079,9,4,4,119,2444,0
1080,9,4,5,120,8682,1
1081,10,7,1,1,9053,1
1082,10,7,2,2,6099,1
1083,10,7,3,3,3705,1
1084,10,7,4,4,4176,0
1085,10,7,5,5,7801,0
1086,10,24,1,6,6980,0
1087,10,24,2,7,3084,0
1088,10,24,3,8,2213,0
1089,10,24,4,9,5919,1
1090,10,24,5,10,3405,1
1091,10,3,1,11,6249,1
1092,10,3,2,12,4226,0
1093,10,3,3,13,3234,1
1094,10,3,4,14,4286,0
1095,10,3,5,15,6519,0
1096,10,22,1,16,4997,0
1097,10,22,2,17,5247,0
1098,10,22,3,18,1972,0
1099,10,22,4,19,3075,1
1100,10,22,5,20,3364,0
1101,10,13,1,21,4776,1
1102,10,13,2,22,4517,1
1103,10,13,3,23,2393,1
1104,10,13,4,24,3926,1
1105,10,13,5,25,3776,1
1106,10,12,1,26,6399,1
1107,10,12,2,27,4386,1
1108,10,12,3,28,2153,1
1109,10,12,4,29,2574,1
1110,10,12,5,30,6449,0
1111,10,21,1,31,14672,0
1112,10,21,2,32,7551,1
1113,10,21,3,33,1412,1
1114,10,21,4,34,3455,0
1115,10,21,5,35,4166,1
1116,10,1,1,36,6389,1
1117,10,1,2,37,4747,1
1118,10,1,3,38,1743,0
1119,10,1,4,39,2634,1
1120,10,1,5,40,5688,0
1121,10,8,1,41,4075,1
1122,10,8,2,42,2934,0
1123,10,8,3,43,1663,1
1124,10,8,4,44,2273,1
1125,10,8,5,45,6910,0
1126,10,11,1,46,5768,1
1127,10,11,2,47,7210,1
1128,10,11,3,48,2203,0
1129,10,11,4,49,2674,1
1130,10,11,5,50,8132,0
1131,10,9,1,51,6089,0
1132,10,9,2,52,6119,1
1133,10,9,3,53,1973,0
1134,10,9,4,54,1992,0
1135,10,9,5,55,8001,1
1136,10,14,1,56,5869,0
1137,10,14,2,57,8633,0
1138,10,14,3,58,3685,0
1139,10,14,4,59,3956,0
1140,10,14,5,60,4286,0
1141,10,6,1,61,4116,0
1142,10,6,2,62,3114,1
1143,10,6,3,63,1993,1
1144,10,6,4,64,2133,1
1145,10,6,5,65,6229,0
1146,10,18,1,66,4476,1
1147,10,18,2,67,3355,1
1148,10,18,3,68,2043,0
1149,10,18,4,69,3625,1
1150,10,18,5,70,3405,0
1151,10,5,1,71,7661,1
1152,10,5,2,72,6309,1
1153,10,5,3,73,1742,0
1154,10,5,4,74,3175,1
1155,10,5,5,75,6980,1
1156,10,16,1,76,4076,1
1157,10,16,2,77,2974,1
1158,10,16,3,78,1722,1
1159,10,16,4,79,2564,1
1160,10,16,5,80,3435,1
1161,10,20,1,81,6299,0
1162,10,20,2,82,3755,0
1163,10,20,3,83,2633,0
1164,10,20,4,84,3055,0
1165,10,20,5,85,2713,1
1166,10,2,1,86,6269,1
1167,10,2,2,87,4706,0
1168,10,2,3,88,2163,0
1169,10,2,4,89,2053,0
1170,10,2,5,90,6750,1
1171,10,17,1,91,3575,0
1172,10,17,2,92,3976,1
1173,10,17,3,93,1993,1
1174,10,17,4,94,1823,1
1175,10,17,5,95,2123,0
1176,10,23,1,96,4536,1
1177,10,23,2,97,4166,0
1178,10,23,3,98,1652,0
1179,10,23,4,99,1752,0
1180,10,23,5,100,4547,0
1181,10,10,1,101,3575,0
1182,10,10,2,102,4446,0
1183,10,10,3,103,1582,1
1184,10,10,4,104,2493,1
1185,10,10,5,105,8853,0
1186,10,15,1,106,5267,1
1187,10,15,2,107,2764,1
1188,10,15,3,108,1302,0
1189,10,15,4,109,1081,0
1190,10,15,5,110,3145,0
1191,10,4,1,111,8552,0
1192,10,4,2,112,7170,0
1193,10,4,3,113,1732,1
1194,10,4,4,114,2443,0
1195,10,4,5,115,6099,1
1196,10,19,1,116,6329,1
1197,10,19,2,117,7070,0
1198,10,19,3,118,1712,0
1199,10,19,4,119,1923,0
1200,10,19,5,120,4066,0
1201,11,17,1,1,4286,0
1202,11,17,2,2,4276,1
1203,11,17,3,3,3865,1
1204,11,17,4,4,2554,1
1205,11,17,5,5,2434,0
1206,11,12,1,6,5228,1
1207,11,12,2,7,3886,1
1208,11,12,3,8,3014,1
1209,11,12,4,9,2003,1
1210,11,12,5,10,6590,0
1211,11,23,1,11,4606,1
1212,11,23,2,12,3856,0
1213,11,23,3,13,2213,0
1214,11,23,4,14,2344,0
1215,11,23,5,15,4556,0
1216,11,6,1,16,5979,0
1217,11,6,2,17,6549,1
1218,11,6,3,18,1803,1
1219,11,6,4,19,1933,1
1220,11,6,5,20,6219,0
1221,11,15,1,21,6139,1
1222,11,15,2,22,2905,1
1223,11,15,3,23,1713,0
1224,11,15,4,24,2334,0
1225,11,15,5,25,3575,0
1226,11,22,1,26,4596,0
1227,11,22,2,27,3775,0
1228,11,22,3,28,2003,0
1229,11,22,4,29,2975,1
1230,11,22,5,30,2944,0
1231,11,1,1,31,4036,1
1232,11,1,2,32,5077,1
1233,11,1,3,33,3355,0
1234,11,1,4,34,2784,1
1235,11,1,5,35,6018,0
1236,11,18,1,36,4937,1
1237,11,18,2,37,4035,1
1238,11,18,3,38,2583,0
1239,11,18,4,39,3575,1
1240,11,18,5,40,3836,0
1241,11,16,1,41,4076,1
1242,11,16,2,42,4687,1
1243,11,16,3,43,2293,1
1244,11,16,4,44,2584,1
1245,11,16,5,45,3606,1
1246,11,19,1,46,6790,1
1247,11,19,2,47,7961,0
1248,11,19,3,48,2423,0
1249,11,19,4,49,5147,0
1250,11,19,5,50,4307,0
1251,11,5,1,51,4887,1
1252,11,5,2,52,4366,1
1253,11,5,3,53,2744,0
1254,11,5,4,54,2674,1
1255,11,5,5,55,7340,1
1256,11,8,1,56,3184,1
1257,11,8,2,57,3846,0
1258,11,8,3,58,1963,1
1259,11,8,4,59,1822,1
1260,11,8,5,60,7451,1
1261,11,10,1,61,7080,0
1262,11,10,2,62,5157,0
1263,11,10,3,63,2875,1
1264,11,10,4,64,2713,1
1265,11,10,5,65,9664,0
1266,11,3,1,66,12508,1
1267,11,3,2,67,4266,0
1268,11,3,3,68,1672,1
1269,11,3,4,69,2674,0
1270,11,3,5,70,6710,0
1271,11,7,1,71,10435,1
1272,11,7,2,72,5998,1
1273,11,7,3,73,2714,1
1274,11,7,4,74,3955,0
1275,11,7,5,75,10735,0
1276,11,9,1,76,4075,0
1277,11,9,2,77,10735,1
1278,11,9,3,78,5578,0
1279,11,9,4,79,2253,0
1280,11,9,5,80,9153,1
1281,11,14,1,81,7130,0
1282,11,14,2,82,5498,0
1283,11,14,3,83,2564,0
1284,11,14,4,84,4216,0
1285,11,14,5,85,4026,0
1286,11,2,1,86,5678,1
1287,11,2,2,87,6109,0
1288,11,2,3,88,2824,0
1289,11,2,4,89,2804,0
1290,11,2,5,90,7861,1
1291,11,24,1,91,6840,0
1292,11,24,2,92,3765,0
1293,11,24,3,93,1442,0
1294,11,24,4,94,3575,0
1295,11,24,5,95,3725,1
1296,11,21,1,96,11587,0
1297,11,21,2,97,7681,1
1298,11,21,3,98,1752,1
1299,11,21,4,99,4746,0
1300,11,21,5,100,4096,1
1301,11,4,1,101,4056,0
1302,11,4,2,102,7541,0
1303,11,4,3,103,4026,1
1304,11,4,4,104,2073,0
1305,11,4,5,105,6710,1
1306,11,11,1,106,6820,1
1307,11,11,2,107,4187,1
1308,11,11,3,108,2073,0
1309,11,11,4,109,3025,1
1310,11,11,5,110,7471,0
1311,11,13,1,111,5508,1
1312,11,13,2,112,5878,1
1313,11,13,3,113,2214,1
1314,11,13,4,114,4146,1
1315,11,13,5,115,3866,1
1316,11,20,1,116,6068,0
1317,11,20,2,117,3706,0
1318,11,20,3,118,2114,0
1319,11,20,4,119,2694,0
1320,11,20,5,120,2704,1
1321,12,22,1,1,6189,0
1322,12,22,2,2,3896,0
1323,12,22,3,3,2073,0
1324,12,22,4,4,2894,1
1325,12,22,5,5,3135,0
1326,12,15,1,6,7071,1
1327,12,15,2,7,3455,1
1328,12,15,3,8,1973,0
1329,12,15,4,9,2944,0
1330,12,15,5,10,3455,0
1331,12,17,1,11,3425,0
1332,12,17,2,12,9664,1
1333,12,17,3,13,3124,1
1334,12,17,4,14,4627,1
1335,12,17,5,15,6720,0
1336,12,21,1,16,9634,0
1337,12,21,2,17,16474,0
1338,12,21,3,18,2314,1
1339,12,21,4,19,8813,0
1340,12,21,5,20,6950,1
1341,12,20,1,21,8362,0
1342,12,20,2,22,9524,0
1343,12,20,3,23,4246,0
1344,12,20,4,24,4436,0
1345,12,20,5,25,6920,1
1346,12,19,1,26,11536,1
1347,12,19,2,27,11707,0
1348,12,19,3,28,2593,0
1349,12,19,4,29,7030,0
1350,12,19,5,30,9304,0
1351,12,24,1,31,11416,0
1352,12,24,2,32,5949,0
1353,12,24,3,33,2854,0
1354,12,24,4,34,6589,0
1355,12,24,5,35,4477,1
1356,12,23,1,36,5849,1
1357,12,23,2,37,9944,0
1358,12,23,3,38,2593,0
1359,12,23,4,39,3996,0
1360,12,23,5,40,9053,0
1361,12,9,1,41,6329,0
1362,12,9,2,42,9343,1
1363,12,9,3,43,2373,0
1364,12,9,4,44,2263,0
1365,12,9,5,45,9654,1
1366,12,4,1,46,13360,0
1367,12,4,2,47,8863,0
1368,12,4,3,48,2824,1
1369,12,4,4,49,2254,0
1370,12,4,5,50,6860,1
1371,12,8,1,51,6820,0
1372,12,8,2,52,3365,0
1373,12,8,3,53,1763,1
1374,12,8,4,54,6299,1
1375,12,8,5,55,6409,1
1376,12,1,1,56,6790,1
1377,12,1,2,57,7301,1
1378,12,1,3,58,1772,0
1379,12,1,4,59,3745,1
1380,12,1,5,60,6399,0
1381,12,11,1,61,5778,1
1382,12,11,2,62,9193,1
1383,12,11,3,63,2183,0
1384,12,11,4,64,2754,1
1385,12,11,5,65,10135,0
1386,12,7,1,66,8662,1
1387,12,7,2,67,6039,1
1388,12,7,3,68,1873,1
1389,12,7,4,69,4056,0
1390,12,7,5,70,10505,0
1391,12,18,1,71,6279,1
1392,12,18,2,72,8262,1
1393,12,18,3,73,2634,0
1394,12,18,4,74,3435,1
1395,12,18,5,75,4767,0
1396,12,14,1,76,6389,0
1397,12,14,2,77,10675,0
1398,12,14,3,78,3284,0
1399,12,14,4,79,3635,0
1400,12,14,5,80,4016,0
1401,12,5,1,81,11226,1
1402,12,5,2,82,6419,1
1403,12,5,3,83,1722,0
1404,12,5,4,84,5178,1
1405,12,5,5,85,9684,1
1406,12,2,1,86,6699,1
1407,12,2,2,87,4767,0
1408,12,2,3,88,2443,0
1409,12,2,4,89,2654,0
1410,12,2,5,90,8683,0
1411,12,3,1,91,7280,1
1412,12,3,2,92,4456,0
1413,12,3,3,93,2473,1
1414,12,3,4,94,4967,0
1415,12,3,5,95,7441,0
1416,12,10,1,96,10405,0
1417,12,10,2,97,4987,0
1418,12,10,3,98,1862,1
1419,12,10,4,99,2304,1
1420,12,10,5,100,13459,0
1421,12,12,1,101,4386,1
1422,12,12,2,102,3144,1
1423,12,12,3,103,1743,1
1424,12,12,4,104,2704,1
1425,12,12,5,105,6820,0
1426,12,13,1,106,5758,1
1427,12,13,2,107,5327,1
1428,12,13,3,108,2183,1
1429,12,13,4,109,4567,1
1430,12,13,5,110,3785,1
1431,12,6,1,111,4056,0
1432,12,6,2,112,4166,1
1433,12,6,3,113,2093,1
1434,12,6,4,114,2313,1
1435,12,6,5,115,9894,0
1436,12,16,1,116,3095,1
1437,12,16,2,117,2855,1
1438,12,16,3,118,2013,1
1439,12,16,4,119,2754,1
1440,12,16,5,120,3495,1
1441,13,23,1,1,5538,1
1442,13,23,2,2,9945,0
1443,13,23,3,3,4847,0
1444,13,23,4,4,2353,0
1445,13,23,5,5,4576,0
1446,13,8,1,6,3345,1
1447,13,8,2,7,3034,0
1448,13,8,3,8,2273,1
1449,13,8,4,9,2002,1
1450,13,8,5,10,7771,1
1451,13,20,1,11,6599,0
1452,13,20,2,12,5799,0
1453,13,20,3,13,2674,0
1454,13,20,4,14,3144,0
1455,13,20,5,15,2634,1
1456,13,19,1,16,6599,1
1457,13,19,2,17,8352,0
1458,13,19,3,18,2464,0
1459,13,19,4,19,4457,0
1460,13,19,5,20,5147,0
1461,13,16,1,21,4166,1
1462,13,16,2,22,3435,1
1463,13,16,3,23,2354,1
1464,13,16,4,24,2624,1
1465,13,16,5,25,3485,1
1466,13,22,1,26,4556,0
1467,13,22,2,27,5408,0
1468,13,22,3,28,2093,0
1469,13,22,4,29,2754,1
1470,13,22,5,30,2924,0
1471,13,12,1,31,4476,1
1472,13,12,2,32,4296,1
1473,13,12,3,33,2424,1
1474,13,12,4,34,1572,1
1475,13,12,5,35,6199,0
1476,13,4,1,36,3374,0
1477,13,4,2,37,7260,0
1478,13,4,3,38,5267,1
1479,13,4,4,39,1982,0
1480,13,4,5,40,7811,1
1481,13,14,1,41,5958,0
1482,13,14,2,42,5097,0
1483,13,14,3,43,2263,0
1484,13,14,4,44,3044,0
1485,13,14,5,45,4076,0
1486,13,18,1,46,6128,1
1487,13,18,2,47,3726,1
1488,13,18,3,48,3656,0
1489,13,18,4,49,2874,1
1490,13,18,5,50,3465,0
1491,13,24,1,51,7441,0
1492,13,24,2,52,3385,0
1493,13,24,3,53,1592,0
1494,13,24,4,54,4997,0
1495,13,24,5,55,3355,1
1496,13,13,1,56,4807,1
1497,13,13,2,57,5748,1
1498,13,13,3,58,1853,1
1499,13,13,4,59,3345,1
1500,13,13,5,60,3635,1
1501,13,5,1,61,4266,1
1502,13,5,2,62,5067,1
1503,13,5,3,63,2343,0
1504,13,5,4,64,2153,1
1505,13,5,5,65,6779,1
1506,13,9,1,66,4457,0
1507,13,9,2,67,6179,1
1508,13,9,3,68,1903,0
1509,13,9,4,69,2023,0
1510,13,9,5,70,7250,1
1511,13,11,1,71,6930,1
1512,13,11,2,72,4667,1
1513,13,11,3,73,1932,0
1514,13,11,4,74,2483,1
1515,13,11,5,75,6960,0
1516,13,2,1,76,5177,1
1517,13,2,2,77,5388,0
1518,13,2,3,78,2243,0
1519,13,2,4,79,3315,0
1520,13,2,5,80,7281,1
1521,13,6,1,81,3995,0
1522,13,6,2,82,6519,1
1523,13,6,3,83,1803,1
1524,13,6,4,84,1642,1
1525,13,6,5,85,6950,0
1526,13,7,1,86,10835,1
1527,13,7,2,87,5828,1
1528,13,7,3,88,2394,1
1529,13,7,4,89,2865,0
1530,13,7,5,90,8142,0
1531,13,21,1,91,9053,0
1532,13,21,2,92,7611,1
1533,13,21,3,93,1492,1
1534,13,21,4,94,4176,0
1535,13,21,5,95,3325,1
1536,13,3,1,96,8112,1
1537,13,3,2,97,5769,0
1538,13,3,3,98,1342,1
1539,13,3,4,99,2513,0
1540,13,3,5,100,6650,0
1541,13,10,1,101,5317,0
1542,13,10,2,102,3635,0
1543,13,10,3,103,2473,1
1544,13,10,4,104,1953,1
1545,13,10,5,105,7501,0
1546,13,17,1,106,3916,0
1547,13,17,2,107,4576,1
1548,13,17,3,108,2153,1
1549,13,17,4,109,1833,1
1550,13,17,5,110,1733,0
1551,13,1,1,111,4076,1
1552,13,1,2,112,4877,1
1553,13,1,3,113,2534,0
1554,13,1,4,114,2353,1
1555,13,1,5,115,7331,0
1556,13,15,1,116,5388,1
1557,13,15,2,117,2844,1
1558,13,15,3,118,1483,0
1559,13,15,4,119,1723,0
1560,13,15,5,120,3395,0
1561,14,19,1,1,7791,1
1562,14,19,2,2,9915,0
1563,14,19,3,3,5117,0
1564,14,19,4,4,5228,0
1565,14,19,5,5,5498,0
1566,14,16,1,6,4487,1
1567,14,16,2,7,3535,1
1568,14,16,3,8,2304,1
1569,14,16,4,9,2754,1
1570,14,16,5,10,4016,1
1571,14,1,1,11,7831,1
1572,14,1,2,12,5859,1
1573,14,1,3,13,2504,0
1574,14,1,4,14,3194,1
1575,14,1,5,15,7651,0
1576,14,6,1,16,6680,0
1577,14,6,2,17,3095,1
1578,14,6,3,18,2453,1
1579,14,6,4,19,2463,1
1580,14,6,5,20,6450,0
1581,14,22,1,21,4527,0
1582,14,22,2,22,4527,0
1583,14,22,3,23,2083,0
1584,14,22,4,24,3625,1
1585,14,22,5,25,3284,0
1586,14,8,1,26,4015,1
1587,14,8,2,27,3145,0
1588,14,8,3,28,1922,1
1589,14,8,4,29,1873,1
1590,14,8,5,30,8382,0
1591,14,12,1,31,7270,1
1592,14,12,2,32,3925,1
1593,14,12,3,33,2374,1
1594,14,12,4,34,2394,1
1595,14,12,5,35,6600,0
1596,14,3,1,36,6058,1
1597,14,3,2,37,4987,0
1598,14,3,3,38,2934,1
1599,14,3,4,39,4186,0
1600,14,3,5,40,6680,0
1601,14,21,1,41,9444,0
1602,14,21,2,42,7471,1
1603,14,21,3,43,2303,1
1604,14,21,4,44,4877,0
1605,14,21,5,45,4446,1
1606,14,4,1,46,6709,0
1607,14,4,2,47,7041,0
1608,14,4,3,48,2173,1
1609,14,4,4,49,2323,0
1610,14,4,5,50,6569,1
1611,14,7,1,51,8422,1
1612,14,7,2,52,5908,1
1613,14,7,3,53,2994,1
1614,14,7,4,54,3675,0
1615,14,7,5,55,7360,0
1616,14,23,1,56,4536,1
1617,14,23,2,57,6560,0
1618,14,23,3,58,1752,0
1619,14,23,4,59,1732,0
1620,14,23,5,60,4857,0
1621,14,5,1,61,10996,1
1622,14,5,2,62,6830,1
1623,14,5,3,63,1953,0
1624,14,5,4,64,3385,1
1625,14,5,5,65,7070,1
1626,14,11,1,66,5588,1
1627,14,11,2,67,8071,1
1628,14,11,3,68,2293,0
1629,14,11,4,69,2303,1
1630,14,11,5,70,8272,0
1631,14,9,1,71,5988,0
1632,14,9,2,72,9494,1
1633,14,9,3,73,2724,0
1634,14,9,4,74,1893,0
1635,14,9,5,75,11076,1
1636,14,24,1,76,6690,0
1637,14,24,2,77,3295,0
1638,14,24,3,78,1462,0
1639,14,24,4,79,3255,0
1640,14,24,5,80,3845,1
1641,14,10,1,81,5368,0
1642,14,10,2,82,3805,0
1643,14,10,3,83,1553,1
1644,14,10,4,84,2664,1
1645,14,10,5,85,8382,0
1646,14,15,1,86,5017,1
1647,14,15,2,87,3035,1
1648,14,15,3,88,1412,0
1649,14,15,4,89,1873,0
1650,14,15,5,90,3375,0
1651,14,17,1,91,3516,0
1652,14,17,2,92,4977,1
1653,14,17,3,93,2303,1
1654,14,17,4,94,1663,1
1655,14,17,5,95,2083,0
1656,14,14,1,96,6459,0
1657,14,14,2,97,5018,0
1658,14,14,3,98,1893,0
1659,14,14,4,99,3245,0
1660,14,14,5,100,3985,0
1661,14,2,1,101,6349,1
1662,14,2,2,102,4967,0
1663,14,2,3,103,2063,0
1664,14,2,4,104,1913,0
1665,14,2,5,105,7431,1
1666,14,13,1,106,5207,1
1667,14,13,2,107,5458,1
1668,14,13,3,108,1742,1
1669,14,13,4,109,3485,1
1670,14,13,5,110,3425,1
1671,14,20,1,111,6900,0
1672,14,20,2,112,3756,0
1673,14,20,3,113,1933,0
1674,14,20,4,114,2644,0
1675,14,20,5,115,2844,1
1676,14,18,1,116,4396,1
1677,14,18,2,117,3274,1
1678,14,18,3,118,1993,0
1679,14,18,4,119,2794,1
1680,14,18,5,120,3325,0
1681,15,14,1,1,6530,0
1682,15,14,2,2,9063,0
1683,15,14,3,3,6619,0
1684,15,14,4,4,5397,0
1685,15,14,5,5,6449,0
1686,15,2,1,6,6690,1
1687,15,2,2,7,5488,0
1688,15,2,3,8,3024,0
1689,15,2,4,9,3054,0
1690,15,2,5,10,8211,1
1691,15,5,1,11,5989,1
1692,15,5,2,12,4907,1
1693,15,5,3,13,3755,0
1694,15,5,4,14,2464,1
1695,15,5,5,15,6940,1
1696,15,12,1,16,3745,1
1697,15,12,2,17,3876,1
1698,15,12,3,18,2374,1
1699,15,12,4,19,2474,1
1700,15,12,5,20,6399,0
1701,15,11,1,21,7000,1
1702,15,11,2,22,4316,1
1703,15,11,3,23,2354,0
1704,15,11,4,24,2634,1
1705,15,11,5,25,7380,0
1706,15,4,1,26,6028,0
1707,15,4,2,27,7400,0
1708,15,4,3,28,4476,1
1709,15,4,4,29,2163,0
1710,15,4,5,30,8362,1
1711,15,19,1,31,6719,1
1712,15,19,2,32,12949,0
1713,15,19,3,33,2554,0
1714,15,19,4,34,4757,0
1715,15,19,5,35,4216,0
1716,15,23,1,36,5558,1
1717,15,23,2,37,4436,0
1718,15,23,3,38,2714,0
1719,15,23,4,39,2143,0
1720,15,23,5,40,8242,0
1721,15,10,1,41,5147,0
1722,15,10,2,42,4897,0
1723,15,10,3,43,2673,1
1724,15,10,4,44,2463,1
1725,15,10,5,45,11136,0
1726,15,15,1,46,6640,1
1727,15,15,2,47,3405,1
1728,15,15,3,48,1823,0
1729,15,15,4,49,2294,0
1730,15,15,5,50,3415,0
1731,15,22,1,51,5417,0
1732,15,22,2,52,3756,0
1733,15,22,3,53,1862,0
1734,15,22,4,54,3015,1
1735,15,22,5,55,3224,0
1736,15,24,1,56,7240,0
1737,15,24,2,57,3435,0
1738,15,24,3,58,1432,0
1739,15,24,4,59,3735,0
1740,15,24,5,60,3646,1
1741,15,17,1,61,3965,0
1742,15,17,2,62,3966,1
1743,15,17,3,63,2313,1
1744,15,17,4,64,2133,1
1745,15,17,5,65,2353,0
1746,15,20,1,66,6069,0
1747,15,20,2,67,4096,0
1748,15,20,3,68,2534,0
1749,15,20,4,69,3205,0
1750,15,20,5,70,4236,1
1751,15,21,1,71,13179,0
1752,15,21,2,72,8211,1
1753,15,21,3,73,2073,1
1754,15,21,4,74,4266,0
1755,15,21,5,75,3425,1
1756,15,3,1,76,13329,1
1757,15,3,2,77,4526,0
1758,15,3,3,78,1302,1
1759,15,3,4,79,3085,0
1760,15,3,5,80,6730,0
1761,15,18,1,81,6269,1
1762,15,18,2,82,3515,1
1763,15,18,3,83,2203,0
1764,15,18,4,84,4166,1
1765,15,18,5,85,3354,0
1766,15,13,1,86,5128,1
1767,15,13,2,87,5077,1
1768,15,13,3,88,1923,1
1769,15,13,4,89,3565,1
1770,15,13,5,90,3525,1
1771,15,6,1,91,7591,0
1772,15,6,2,92,6659,1
1773,15,6,3,93,1712,1
1774,15,6,4,94,2203,1
1775,15,6,5,95,6660,0
1776,15,7,1,96,10115,1
1777,15,7,2,97,5007,1
1778,15,7,3,98,2574,1
1779,15,7,4,99,3546,0
1780,15,7,5,100,8602,0
1781,15,8,1,101,3224,1
1782,15,8,2,102,3465,0
1783,15,8,3,103,2093,1
1784,15,8,4,104,1743,1
1785,15,8,5,105,7020,1
1786,15,16,1,106,4547,1
1787,15,16,2,107,5188,1
1788,15,16,3,108,2454,1
1789,15,16,4,109,2483,1
1790,15,16,5,110,4136,1
1791,15,1,1,111,4687,1
1792,15,1,2,112,5168,1
1793,15,1,3,113,2734,0
1794,15,1,4,114,2553,1
1795,15,1,5,115,6249,0
1796,15,9,1,116,4346,0
1797,15,9,2,117,8833,1
1798,15,9,3,118,2654,0
1799,15,9,4,119,1822,0
1800,15,9,5,120,7691,1
1801,16,19,1,1,6559,1
1802,16,19,2,2,7992,0
1803,16,19,3,3,2874,0
1804,16,19,4,4,4787,0
1805,16,19,5,5,4767,0
1806,16,24,1,6,6890,0
1807,16,24,2,7,3094,0
1808,16,24,3,8,1653,0
1809,16,24,4,9,4256,0
1810,16,24,5,10,3875,1
1811,16,23,1,11,4547,1
1812,16,23,2,12,6329,0
1813,16,23,3,13,1723,0
1814,16,23,4,14,2043,0
1815,16,23,5,15,4186,0
1816,16,4,1,16,5277,0
1817,16,4,2,17,6720,0
1818,16,4,3,18,2013,1
1819,16,4,4,19,2314,0
1820,16,4,5,20,6679,1
1821,16,20,1,21,5978,0
1822,16,20,2,22,3786,0
1823,16,20,3,23,2534,0
1824,16,20,4,24,2994,0
1825,16,20,5,25,6049,1
1826,16,11,1,26,5157,1
1827,16,11,2,27,8001,1
1828,16,11,3,28,2283,0
1829,16,11,4,29,2433,1
1830,16,11,5,30,8572,0
1831,16,9,1,31,6139,0
1832,16,9,2,32,5899,1
1833,16,9,3,33,2263,0
1834,16,9,4,34,1893,0
1835,16,9,5,35,7391,1
1836,16,8,1,36,4216,1
1837,16,8,2,37,3015,0
1838,16,8,3,38,1822,1
1839,16,8,4,39,1883,1
1840,16,8,5,40,7661,0
1841,16,17,1,41,3835,0
1842,16,17,2,42,4707,1
1843,16,17,3,43,2223,1
1844,16,17,4,44,1922,1
1845,16,17,5,45,2083,0
1846,16,21,1,46,6700,0
1847,16,21,2,47,7370,1
1848,16,21,3,48,1612,1
1849,16,21,4,49,4847,0
1850,16,21,5,50,2985,1
1851,16,6,1,51,4056,0
1852,16,6,2,52,2894,1
1853,16,6,3,53,1762,1
1854,16,6,4,54,2023,1
1855,16,6,5,55,5759,0
1856,16,1,1,56,6410,1
1857,16,1,2,57,4637,1
1858,16,1,3,58,1733,0
1859,16,1,4,59,2042,1
1860,16,1,5,60,5678,0
1861,16,3,1,61,6319,1
1862,16,3,2,62,4276,0
1863,16,3,3,63,2674,1
1864,16,3,4,64,3294,0
1865,16,3,5,65,6158,0
1866,16,16,1,66,3775,1
1867,16,16,2,67,3485,1
1868,16,16,3,68,1983,1
1869,16,16,4,69,2464,1
1870,16,16,5,70,3444,1
1871,16,10,1,71,4036,0
1872,16,10,2,72,3064,0
1873,16,10,3,73,1582,1
1874,16,10,4,74,2153,1
1875,16,10,5,75,7571,0
1876,16,15,1,76,6459,1
1877,16,15,2,77,3325,1
1878,16,15,3,78,1502,0
1879,16,15,4,79,1973,0
1880,16,15,5,80,3415,0
1881,16,5,1,81,9274,1
1882,16,5,2,82,6350,1
1883,16,5,3,83,1823,0
1884,16,5,4,84,2593,1
1885,16,5,5,85,6860,1
1886,16,18,1,86,6639,1
1887,16,18,2,87,4837,1
1888,16,18,3,88,2173,0
1889,16,18,4,89,3185,1
1890,16,18,5,90,3606,0
1891,16,2,1,91,5658,1
1892,16,2,2,92,4446,0
1893,16,2,3,93,2313,0
1894,16,2,4,94,1742,0
1895,16,2,5,95,7371,1
1896,16,7,1,96,7631,1
1897,16,7,2,97,5738,1
1898,16,7,3,98,1913,1
1899,16,7,4,99,2003,0
1900,16,7,5,100,6719,0
1901,16,22,1,101,4446,0
1902,16,22,2,102,3875,0
1903,16,22,3,103,1803,0
1904,16,22,4,104,2584,1
1905,16,22,5,105,2934,0
1906,16,13,1,106,6459,1
1907,16,13,2,107,5438,1
1908,16,13,3,108,2324,1
1909,16,13,4,109,2433,1
1910,16,13,5,110,3986,1
1911,16,14,1,111,4957,0
1912,16,14,2,112,4977,0
1913,16,14,3,113,2454,0
1914,16,14,4,114,3305,0
1915,16,14,5,115,3695,0
1916,16,12,1,116,6008,1
1917,16,12,2,117,2984,1
1918,16,12,3,118,1813,1
1919,16,12,4,119,2223,1
1920,16,12,5,120,6279,0
1921,17,11,1,1,9113,1
1922,17,11,2,2,6529,1
1923,17,11,3,3,8231,0
1924,17,11,4,4,6009,1
1925,17,11,5,5,11507,0
1926,17,24,1,6,7781,0
1927,17,24,2,7,6259,0
1928,17,24,3,8,2153,0
1929,17,24,4,9,12268,0
1930,17,24,5,10,4427,1
1931,17,5,1,11,6920,1
1932,17,5,2,12,4517,1
1933,17,5,3,13,4517,0
1934,17,5,4,14,3055,1
1935,17,5,5,15,11536,1
1936,17,16,1,16,3985,1
1937,17,16,2,17,3485,1
1938,17,16,3,18,2213,1
1939,17,16,4,19,2874,1
1940,17,16,5,20,3715,1
1941,17,19,1,21,9534,1
1942,17,19,2,22,9063,0
1943,17,19,3,23,3775,0
1944,17,19,4,24,5698,0
1945,17,19,5,25,6800,0
1946,17,3,1,26,15242,1
1947,17,3,2,27,6439,0
1948,17,3,3,28,1752,1
1949,17,3,4,29,2874,0
1950,17,3,5,30,8062,0
1951,17,6,1,31,5829,0
1952,17,6,2,32,7000,1
1953,17,6,3,33,1341,1
1954,17,6,4,34,1743,1
1955,17,6,5,35,6770,0
1956,17,7,1,36,10295,1
1957,17,7,2,37,6188,1
1958,17,7,3,38,2434,1
1959,17,7,4,39,3245,0
1960,17,7,5,40,9464,0
1961,17,14,1,41,8111,0
1962,17,14,2,42,11316,0
1963,17,14,3,43,2944,0
1964,17,14,4,44,3595,0
1965,17,14,5,45,5448,0
1966,17,22,1,46,4937,0
1967,17,22,2,47,5097,0
1968,17,22,3,48,1853,0
1969,17,22,4,49,2914,1
1970,17,22,5,50,3655,0
1971,17,21,1,51,19188,0
1972,17,21,2,52,7921,1
1973,17,21,3,53,1362,1
1974,17,21,4,54,4286,0
1975,17,21,5,55,4256,1
1976,17,15,1,56,6680,1
1977,17,15,2,57,3746,1
1978,17,15,3,58,1542,0
1979,17,15,4,59,1913,0
1980,17,15,5,60,3685,0
1981,17,2,1,61,8352,1
1982,17,2,2,62,8192,0
1983,17,2,3,63,2073,0
1984,17,2,4,64,2844,0
1985,17,2,5,65,8202,1
1986,17,12,1,66,6599,1
1987,17,12,2,67,5228,1
1988,17,12,3,68,3074,1
1989,17,12,4,69,2083,1
1990,17,12,5,70,7251,0
1991,17,1,1,71,5077,1
1992,17,1,2,72,6439,1
1993,17,1,3,73,2724,0
1994,17,1,4,74,2243,1
1995,17,1,5,75,8652,0
1996,17,10,1,76,8081,0
1997,17,10,2,77,5187,0
1998,17,10,3,78,2453,1
1999,17,10,4,79,2423,1
2000,17,10,5,80,13359,0
2001,17,9,1,81,4336,0
2002,17,9,2,82,8612,1
2003,17,9,3,83,2133,0
2004,17,9,4,84,1552,0
2005,17,9,5,85,12047,1
2006,17,23,1,86,4746,1
2007,17,23,2,87,10015,0
2008,17,23,3,88,1923,0
2009,17,23,4,89,1983,0
2010,17,23,5,90,7181,0
2011,17,8,1,91,3005,1
2012,17,8,2,92,2854,0
2013,17,8,3,93,1783,1
2014,17,8,4,94,1532,1
2015,17,8,5,95,9723,0
2016,17,18,1,96,6619,1
2017,17,18,2,97,8452,1
2018,17,18,3,98,2313,0
2019,17,18,4,99,3015,1
2020,17,18,5,100,4766,0
2021,17,13,1,101,5739,1
2022,17,13,2,102,7070,1
2023,17,13,3,103,2103,1
2024,17,13,4,104,3305,1
2025,17,13,5,105,3364,1
2026,17,20,1,106,6670,0
2027,17,20,2,107,11957,0
2028,17,20,3,108,2113,0
2029,17,20,4,109,2333,0
2030,17,20,5,110,9875,1
2031,17,17,1,111,4236,0
2032,17,17,2,112,9353,1
2033,17,17,3,113,2173,1
2034,17,17,4,114,2364,1
2035,17,17,5,115,3445,0
2036,17,4,1,116,3895,0
2037,17,4,2,117,7661,0
2038,17,4,3,118,661,1
2039,17,4,4,119,1772,0
2040,17,4,5,120,12118,1
2041,18,12,1,1,11216,1
2042,18,12,2,2,7310,1
2043,18,12,3,3,4166,1
2044,18,12,4,4,3875,1
2045,18,12,5,5,8272,0
2046,18,7,1,6,11907,1
2047,18,7,2,7,9444,1
2048,18,7,3,8,4396,1
2049,18,7,4,9,5188,0
2050,18,7,5,10,11627,0
2051,18,13,1,11,6740,1
2052,18,13,2,12,7490,1
2053,18,13,3,13,3355,1
2054,18,13,4,14,5057,1
2055,18,13,5,15,4877,1
2056,18,23,1,16,7251,1
2057,18,23,2,17,8702,0
2058,18,23,3,18,2704,0
2059,18,23,4,19,3165,0
2060,18,23,5,20,7611,0
2061,18,1,1,21,8272,1
2062,18,1,2,22,8312,1
2063,18,1,3,23,2784,0
2064,18,1,4,24,3214,1
2065,18,1,5,25,8573,0
2066,18,24,1,26,10886,0
2067,18,24,2,27,4507,0
2068,18,24,3,28,1833,0
2069,18,24,4,29,5578,0
2070,18,24,5,30,3986,1
2071,18,2,1,31,6790,1
2072,18,2,2,32,5828,0
2073,18,2,3,33,3475,0
2074,18,2,4,34,3195,0
2075,18,2,5,35,11727,1
2076,18,6,1,36,6098,0
2077,18,6,2,37,3205,1
2078,18,6,3,38,2314,1
2079,18,6,4,39,2534,1
2080,18,6,5,40,9273,0
2081,18,16,1,41,4657,1
2082,18,16,2,42,4136,1
2083,18,16,3,43,2052,1
2084,18,16,4,44,2924,1
2085,18,16,5,45,4036,1
2086,18,22,1,46,5958,0
2087,18,22,2,47,4928,0
2088,18,22,3,48,2283,0
2089,18,22,4,49,3394,1
2090,18,22,5,50,4226,0
2091,18,15,1,51,7331,1
2092,18,15,2,52,4266,1
2093,18,15,3,53,1772,0
2094,18,15,4,54,3024,0
2095,18,15,5,55,4025,0
2096,18,17,1,56,5117,0
2097,18,17,2,57,9694,1
2098,18,17,3,58,2674,1
2099,18,17,4,59,2173,1
2100,18,17,5,60,3064,0
2101,18,11,1,61,7120,1
2102,18,11,2,62,9664,1
2103,18,11,3,63,2564,0
2104,18,11,4,64,3024,1
2105,18,11,5,65,12228,0
2106,18,10,1,66,11036,0
2107,18,10,2,67,5037,0
2108,18,10,3,68,1562,1
2109,18,10,4,69,2643,1
2110,18,10,5,70,12018,0
2111,18,18,1,71,6750,1
2112,18,18,2,72,8091,1
2113,18,18,3,73,4426,0
2114,18,18,4,74,3905,1
2115,18,18,5,75,4666,0
2116,18,4,1,76,9423,0
2117,18,4,2,77,8793,0
2118,18,4,3,78,3095,1
2119,18,4,4,79,2874,0
2120,18,4,5,80,7811,1
2121,18,8,1,81,4757,1
2122,18,8,2,82,6489,0
2123,18,8,3,83,2683,1
2124,18,8,4,84,2043,1
2125,18,8,5,85,8843,0
2126,18,19,1,86,9854,1
2127,18,19,2,87,16484,0
2128,18,19,3,88,2924,0
2129,18,19,4,89,6269,0
2130,18,19,5,90,6830,0
2131,18,9,1,91,8512,0
2132,18,9,2,92,10665,1
2133,18,9,3,93,2964,0
2134,18,9,4,94,2083,0
2135,18,9,5,95,14350,1
2136,18,3,1,96,9814,1
2137,18,3,2,97,5838,0
2138,18,3,3,98,3485,1
2139,18,3,4,99,8152,0
2140,18,3,5,100,8342,0
2141,18,21,1,101,19097,0
2142,18,21,2,102,8522,1
2143,18,21,3,103,2013,1
2144,18,21,4,104,4957,0
2145,18,21,5,105,5728,1
2146,18,5,1,106,11737,1
2147,18,5,2,107,8652,1
2148,18,5,3,108,2153,0
2149,18,5,4,109,5137,1
2150,18,5,5,110,9965,1
2151,18,14,1,111,6359,0
2152,18,14,2,112,10445,0
2153,18,14,3,113,2434,0
2154,18,14,4,114,3975,0
2155,18,14,5,115,5538,0
2156,18,20,1,116,6770,0
2157,18,20,2,117,11046,0
2158,18,20,3,118,3335,0
2159,18,20,4,119,3926,0
2160,18,20,5,120,6390,1
2161,19,6,1,1,6128,0
2162,19,6,2,2,6870,1
2163,19,6,3,3,3825,1
2164,19,6,4,4,4386,1
2165,19,6,5,5,6569,0
2166,19,19,1,6,6809,1
2167,19,19,2,7,8382,0
2168,19,19,3,8,3125,0
2169,19,19,4,9,4937,0
2170,19,19,5,10,5818,0
2171,19,15,1,11,6780,1
2172,19,15,2,12,3354,1
2173,19,15,3,13,2223,0
2174,19,15,4,14,2694,0
2175,19,15,5,15,3606,0
2176,19,4,1,16,3765,0
2177,19,4,2,17,7190,0
2178,19,4,3,18,5518,1
2179,19,4,4,19,3134,0
2180,19,4,5,20,6950,1
2181,19,11,1,21,7581,1
2182,19,11,2,22,5247,1
2183,19,11,3,23,2483,0
2184,19,11,4,24,4937,1
2185,19,11,5,25,7581,0
2186,19,2,1,26,5508,1
2187,19,2,2,27,5488,0
2188,19,2,3,28,3215,0
2189,19,2,4,29,3095,0
2190,19,2,5,30,7701,1
2191,19,1,1,31,4165,1
2192,19,1,2,32,5128,1
2193,19,1,3,33,2884,0
2194,19,1,4,34,2543,1
2195,19,1,5,35,8372,0
2196,19,12,1,36,5898,1
2197,19,12,2,37,4507,1
2198,19,12,3,38,3465,1
2199,19,12,4,39,2464,1
2200,19,12,5,40,6600,0
2201,19,9,1,41,4316,0
2202,19,9,2,42,5458,1
2203,19,9,3,43,2384,0
2204,19,9,4,44,2443,0
2205,19,9,5,45,7020,1
2206,19,23,1,46,4477,1
2207,19,23,2,47,4536,0
2208,19,23,3,48,3194,0
2209,19,23,4,49,2043,0
2210,19,23,5,50,4607,0
2211,19,17,1,51,3515,0
2212,19,17,2,52,5879,1
2213,19,17,3,53,2734,1
2214,19,17,4,54,2043,1
2215,19,17,5,55,3005,0
2216,19,10,1,56,6400,0
2217,19,10,2,57,6169,0
2218,19,10,3,58,2994,1
2219,19,10,4,59,2734,1
2220,19,10,5,60,9444,0
2221,19,14,1,61,5658,0
2222,19,14,2,62,4426,0
2223,19,14,3,63,2824,0
2224,19,14,4,64,4216,0
2225,19,14,5,65,5929,0
2226,19,24,1,66,6920,0
2227,19,24,2,67,3395,0
2228,19,24,3,68,1572,0
2229,19,24,4,69,4337,0
2230,19,24,5,70,4266,1
2231,19,22,1,71,6108,0
2232,19,22,2,72,5388,0
2233,19,22,3,73,2103,0
2234,19,22,4,74,3595,1
2235,19,22,5,75,3255,0
2236,19,3,1,76,8141,1
2237,19,3,2,77,3535,0
2238,19,3,3,78,1793,1
2239,19,3,4,79,2754,0
2240,19,3,5,80,6860,0
2241,19,5,1,81,4136,1
2242,19,5,2,82,4817,1
2243,19,5,3,83,2794,0
2244,19,5,4,84,2063,1
2245,19,5,5,85,8933,1
2246,19,20,1,86,6099,0
2247,19,20,2,87,7751,0
2248,19,20,3,88,4326,0
2249,19,20,4,89,2864,0
2250,19,20,5,90,7110,1
2251,19,16,1,91,9604,1
2252,19,16,2,92,4717,1
2253,19,16,3,93,2434,1
2254,19,16,4,94,2834,1
2255,19,16,5,95,4096,1
2256,19,18,1,96,7071,1
2257,19,18,2,97,4657,1
2258,19,18,3,98,3956,0
2259,19,18,4,99,4947,1
2260,19,18,5,100,5008,0
2261,19,8,1,101,3605,1
2262,19,8,2,102,3125,0
2263,19,8,3,103,2363,1
2264,19,8,4,104,2293,1
2265,19,8,5,105,7981,1
2266,19,13,1,106,5128,1
2267,19,13,2,107,5688,1
2268,19,13,3,108,2424,1
2269,19,13,4,109,4216,1
2270,19,13,5,110,3946,1
2271,19,21,1,111,10395,0
2272,19,21,2,112,7691,1
2273,19,21,3,113,1903,1
2274,19,21,4,114,4677,0
2275,19,21,5,115,4346,1
2276,19,7,1,116,9033,1
2277,19,7,2,117,4547,1
2278,19,7,3,118,3995,1
2279,19,7,4,119,5798,0
2280,19,7,5,120,9674,0
2281,20,18,1,1,7370,1
2282,20,18,2,2,3706,1
2283,20,18,3,3,3866,0
2284,20,18,4,4,4247,1
2285,20,18,5,5,3905,0
2286,20,6,1,6,4246,0
2287,20,6,2,7,2774,1
2288,20,6,3,8,2263,1
2289,20,6,4,9,2534,1
2290,20,6,5,10,4096,0
2291,20,17,1,11,3825,0
2292,20,17,2,12,3996,1
2293,20,17,3,13,2403,1
2294,20,17,4,14,1903,1
2295,20,17,5,15,2313,0
2296,20,3,1,16,5858,1
2297,20,3,2,17,4276,0
2298,20,3,3,18,2994,1
2299,20,3,4,19,4547,0
2300,20,3,5,20,6049,0
2301,20,8,1,21,3906,1
2302,20,8,2,22,2964,0
2303,20,8,3,23,2143,1
2304,20,8,4,24,1862,1
2305,20,8,5,25,4366,0
2306,20,7,1,26,7301,1
2307,20,7,2,27,5848,1
2308,20,7,3,28,2163,1
2309,20,7,4,29,3324,0
2310,20,7,5,30,7872,0
2311,20,9,1,31,5968,0
2312,20,9,2,32,5999,1
2313,20,9,3,33,1992,0
2314,20,9,4,34,1773,0
2315,20,9,5,35,11196,1
2316,20,23,1,36,5047,1
2317,20,23,2,37,3935,0
2318,20,23,3,38,1503,0
2319,20,23,4,39,2323,0
2320,20,23,5,40,4417,0
2321,20,22,1,41,4987,0
2322,20,22,2,42,4727,0
2323,20,22,3,43,2113,0
2324,20,22,4,44,3355,1
2325,20,22,5,45,3015,0
2326,20,12,1,46,5158,1
2327,20,12,2,47,3756,1
2328,20,12,3,48,1932,1
2329,20,12,4,49,2393,1
2330,20,12,5,50,5798,0
2331,20,14,1,51,6179,0
2332,20,14,2,52,10365,1
2333,20,14,3,53,4026,0
2334,20,14,4,54,4176,0
2335,20,14,5,55,3925,0
2336,20,21,1,56,6730,0
2337,20,21,2,57,7120,1
2338,20,21,3,58,1352,1
2339,20,21,4,59,3925,0
2340,20,21,5,60,3915,1
2341,20,13,1,61,4847,1
2342,20,13,2,62,4487,1
2343,20,13,3,63,1652,1
2344,20,13,4,64,3285,1
2345,20,13,5,65,3545,1
2346,20,15,1,66,4927,0
2347,20,15,2,67,4296,1
2348,20,15,3,68,1543,0
2349,20,15,4,69,2003,0
2350,20,15,5,70,3465,0
2351,20,1,1,71,4596,1
2352,20,1,2,72,4717,1
2353,20,1,3,73,1603,0
2354,20,1,4,74,2043,1
2355,20,1,5,75,5788,0
2356,20,11,1,76,5167,1
2357,20,11,2,77,9173,1
2358,20,11,3,78,2383,0
2359,20,11,4,79,2664,1
2360,20,11,5,80,7601,1
2361,20,10,1,81,5197,0
2362,20,10,2,82,3274,0
2363,20,10,3,83,1602,1
2364,20,10,4,84,2343,1
2365,20,10,5,85,7520,0
2366,20,19,1,86,6799,1
2367,20,19,2,87,11146,0
2368,20,19,3,88,1643,0
2369,20,19,4,89,3995,0
2370,20,19,5,90,4256,0
2371,20,24,1,91,6209,0
2372,20,24,2,92,3575,0
2373,20,24,3,93,1082,0
2374,20,24,4,94,3725,0
2375,20,24,5,95,3495,1
2376,20,16,1,96,5438,0
2377,20,16,2,97,4366,1
2378,20,16,3,98,1832,1
2379,20,16,4,99,4537,1
2380,20,16,5,100,3715,1
2381,20,5,1,101,7641,1
2382,20,5,2,102,6239,1
2383,20,5,3,103,1612,0
2384,20,5,4,104,3285,1
2385,20,5,5,105,8612,0
2386,20,2,1,106,6239,1
2387,20,2,2,107,5117,0
2388,20,2,3,108,1923,0
2389,20,2,4,109,1752,0
2390,20,2,5,110,7691,1
2391,20,4,1,111,6029,0
2392,20,4,2,112,6539,0
2393,20,4,3,113,1752,1
2394,20,4,4,114,2053,0
2395,20,4,5,115,6960,1
2396,20,20,1,116,6099,0
2397,20,20,2,117,5007,0
2398,20,20,3,118,1953,0
2399,20,20,4,119,3635,0
2400,20,20,5,120,3615,1
2401,21,13,1,1,5868,1
2402,21,13,2,2,6229,1
2403,21,13,3,3,5718,1
2404,21,13,4,4,5948,1
2405,21,13,5,5,5317,0
2406,21,3,1,6,10845,1
2407,21,3,2,7,6019,0
2408,21,3,3,8,2804,1
2409,21,3,4,9,4126,0
2410,21,3,5,10,6850,0
2411,21,19,1,11,6700,1
2412,21,19,2,12,7361,0
2413,21,19,3,13,3254,0
2414,21,19,4,14,5818,0
2415,21,19,5,15,5097,0
2416,21,11,1,16,7251,1
2417,21,11,2,17,4837,1
2418,21,11,3,18,2814,0
2419,21,11,4,19,4787,1
2420,21,11,5,20,8872,0
2421,21,5,1,21,4226,1
2422,21,5,2,22,4807,1
2423,21,5,3,23,2424,0
2424,21,5,4,24,2133,1
2425,21,5,5,25,7791,1
2426,21,17,1,26,4126,0
2427,21,17,2,27,6739,1
2428,21,17,3,28,2193,1
2429,21,17,4,29,2724,1
2430,21,17,5,30,2323,0
2431,21,14,1,31,6068,0
2432,21,14,2,32,4707,0
2433,21,14,3,33,3786,0
2434,21,14,4,34,3895,0
2435,21,14,5,35,7370,0
2436,21,7,1,36,10996,1
2437,21,7,2,37,9464,1
2438,21,7,3,38,3495,1
2439,21,7,4,39,4676,0
2440,21,7,5,40,10755,0
2441,21,2,1,41,5568,1
2442,21,2,2,42,5898,0
2443,21,2,3,43,3325,0
2444,21,2,4,44,3695,0
2445,21,2,5,45,12588,1
2446,21,21,1,46,15813,0
2447,21,21,2,47,8202,1
2448,21,21,3,48,2594,1
2449,21,21,4,49,4877,0
2450,21,21,5,50,5398,1
2451,21,4,1,51,5438,0
2452,21,4,2,52,7501,0
2453,21,4,3,53,5268,1
2454,21,4,4,54,3095,0
2455,21,4,5,55,6559,1
2456,21,18,1,56,6859,1
2457,21,18,2,57,3706,1
2458,21,18,3,58,3716,0
2459,21,18,4,59,4417,1
2460,21,18,5,60,5729,0
2461,21,15,1,61,5748,1
2462,21,15,2,62,3746,1
2463,21,15,3,63,1883,0
2464,21,15,4,64,2383,0
2465,21,15,5,65,3845,0
2466,21,24,1,66,6890,0
2467,21,24,2,67,3485,0
2468,21,24,3,68,2233,0
2469,21,24,4,69,5958,0
2470,21,24,5,70,4216,1
2471,21,22,1,71,5538,0
2472,21,22,2,72,4767,0
2473,21,22,3,73,2243,0
2474,21,22,4,74,3395,1
2475,21,22,5,75,3615,0
2476,21,1,1,76,6830,1
2477,21,1,2,77,5398,1
2478,21,1,3,78,3124,0
2479,21,1,4,79,3335,1
2480,21,1,5,80,6950,0
2481,21,16,1,81,4656,1
2482,21,16,2,82,3996,1
2483,21,16,3,83,2574,1
2484,21,16,4,84,2724,1
2485,21,16,5,85,4136,1
2486,21,12,1,86,4667,1
2487,21,12,2,87,4427,1
2488,21,12,3,88,3556,1
2489,21,12,4,89,2834,1
2490,21,12,5,90,6930,0
2491,21,6,1,91,4646,0
2492,21,6,2,92,6800,1
2493,21,6,3,93,1723,1
2494,21,6,4,94,2503,1
2495,21,6,5,95,7060,0
2496,21,10,1,96,8582,0
2497,21,10,2,97,4216,0
2498,21,10,3,98,3295,1
2499,21,10,4,99,5287,1
2500,21,10,5,100,8862,0
2501,21,8,1,101,3074,1
2502,21,8,2,102,3505,0
2503,21,8,3,103,2774,1
2504,21,8,4,104,2223,1
2505,21,8,5,105,10024,0
2506,21,23,1,106,5508,1
2507,21,23,2,107,8122,0
2508,21,23,3,108,2754,0
2509,21,23,4,109,3184,0
2510,21,23,5,110,7260,0
2511,21,9,1,111,4997,0
2512,21,9,2,112,8573,1
2513,21,9,3,113,2664,0
2514,21,9,4,114,2413,0
2515,21,9,5,115,9724,1
2516,21,20,1,116,6059,0
2517,21,20,2,117,4356,0
2518,21,20,3,118,3175,0
2519,21,20,4,119,3856,0
2520,21,20,5,120,2854,1
2521,22,20,1,1,7080,0
2522,22,20,2,2,4316,0
2523,22,20,3,3,3054,0
2524,22,20,4,4,3465,0
2525,22,20,5,5,3385,1
2526,22,4,1,6,6449,0
2527,22,4,2,7,8132,0
2528,22,4,3,8,2504,1
2529,22,4,4,9,2554,0
2530,22,4,5,10,7641,1
2531,22,15,1,11,5818,1
2532,22,15,2,12,3695,1
2533,22,15,3,13,1893,0
2534,22,15,4,14,2443,0
2535,22,15,5,15,3705,0
2536,22,16,1,16,10035,1
2537,22,16,2,17,4136,1
2538,22,16,3,18,2474,1
2539,22,16,4,19,4066,1
2540,22,16,5,20,4256,1
2541,22,22,1,21,5117,0
2542,22,22,2,22,4667,0
2543,22,22,3,23,2234,0
2544,22,22,4,24,3064,1
2545,22,22,5,25,3746,0
2546,22,6,1,26,4656,0
2547,22,6,2,27,3585,1
2548,22,6,3,28,2333,1
2549,22,6,4,29,2764,1
2550,22,6,5,30,7972,0
2551,22,2,1,31,6609,1
2552,22,2,2,32,5748,0
2553,22,2,3,33,3385,0
2554,22,2,4,34,2744,0
2555,22,2,5,35,8182,1
2556,22,7,1,36,9314,1
2557,22,7,2,37,6249,1
2558,22,7,3,38,2684,1
2559,22,7,4,39,4286,0
2560,22,7,5,40,9754,0
2561,22,21,1,41,9905,0
2562,22,21,2,42,8052,1
2563,22,21,3,43,2113,1
2564,22,21,4,44,5588,0
2565,22,21,5,45,4016,1
2566,22,10,1,46,3876,0
2567,22,10,2,47,4346,0
2568,22,10,3,48,2073,1
2569,22,10,4,49,2593,1
2570,22,10,5,50,13089,0
2571,22,18,1,51,6039,1
2572,22,18,2,52,3786,1
2573,22,18,3,53,2564,0
2574,22,18,4,54,3455,1
2575,22,18,5,55,3595,0
2576,22,14,1,56,6869,0
2577,22,14,2,57,4587,0
2578,22,14,3,58,2334,0
2579,22,14,4,59,4096,0
2580,22,14,5,60,4246,0
2581,22,3,1,61,8061,1
2582,22,3,2,62,5268,0
2583,22,3,3,63,3084,1
2584,22,3,4,64,5478,0
2585,22,3,5,65,6509,0
2586,22,17,1,66,4176,0
2587,22,17,2,67,5548,1
2588,22,17,3,68,2303,1
2589,22,17,4,69,2173,1
2590,22,17,5,70,2414,0
2591,22,12,1,71,6810,1
2592,22,12,2,72,4357,1
2593,22,12,3,73,1912,1
2594,22,12,4,74,2153,1
2595,22,12,5,75,6409,0
2596,22,9,1,76,6470,0
2597,22,9,2,77,8572,1
2598,22,9,3,78,2563,0
2599,22,9,4,79,2374,0
2600,22,9,5,80,8292,1
2601,22,5,1,81,10355,1
2602,22,5,2,82,6670,1
2603,22,5,3,83,2313,0
2604,22,5,4,84,2935,1
2605,22,5,5,85,7340,1
2606,22,8,1,86,4356,1
2607,22,8,2,87,6340,0
2608,22,8,3,88,1883,1
2609,22,8,4,89,1873,1
2610,22,8,5,90,8793,0
2611,22,19,1,91,6560,1
2612,22,19,2,92,8512,1
2613,22,19,3,93,2053,0
2614,22,19,4,94,4396,0
2615,22,19,5,95,5257,0
2616,22,13,1,96,5909,1
2617,22,13,2,97,6049,1
2618,22,13,3,98,2193,1
2619,22,13,4,99,3585,1
2620,22,13,5,100,3505,1
2621,22,11,1,101,5528,1
2622,22,11,2,102,9123,1
2623,22,11,3,103,2393,0
2624,22,11,4,104,2143,1
2625,22,11,5,105,8432,0
2626,22,1,1,106,5598,1
2627,22,1,2,107,5077,1
2628,22,1,3,108,1712,0
2629,22,1,4,109,2213,1
2630,22,1,5,110,5898,0
2631,22,24,1,111,7130,0
2632,22,24,2,112,3315,0
2633,22,24,3,113,1442,0
2634,22,24,4,114,3865,0
2635,22,24,5,115,3615,1
2636,22,23,1,116,4306,1
2637,22,23,2,117,6259,0
2638,22,23,3,118,1632,0
2639,22,23,4,119,1973,0
2640,22,23,5,120,4737,0
2641,23,1,1,1,7501,1
2642,23,1,2,2,5919,1
2643,23,1,3,3,4426,0
2644,23,1,4,4,3655,1
2645,23,1,5,5,7451,0
2646,23,17,1,6,4457,0
2647,23,17,2,7,5969,1
2648,23,17,3,8,4277,1
2649,23,17,4,9,2443,1
2650,23,17,5,10,3084,0
2651,23,2,1,11,4997,1
2652,23,2,2,12,5608,0
2653,23,2,3,13,2664,0
2654,23,2,4,14,2885,0
2655,23,2,5,15,7832,1
2656,23,7,1,16,10635,1
2657,23,7,2,17,5568,1
2658,23,7,3,18,2373,1
2659,23,7,4,19,3656,0
2660,23,7,5,20,8593,0
2661,23,13,1,21,5208,1
2662,23,13,2,22,5408,1
2663,23,13,3,23,2364,1
2664,23,13,4,24,3224,1
2665,23,13,5,25,3465,1
2666,23,10,1,26,5819,0
2667,23,10,2,27,3905,0
2668,23,10,3,28,2754,1
2669,23,10,4,29,2423,1
2670,23,10,5,30,7491,0
2671,23,14,1,31,6229,0
2672,23,14,2,32,9183,0
2673,23,14,3,33,2554,0
2674,23,14,4,34,3675,0
2675,23,14,5,35,5898,0
2676,23,5,1,36,4546,1
2677,23,5,2,37,4456,1
2678,23,5,3,38,2564,0
2679,23,5,4,39,2303,1
2680,23,5,5,40,7141,1
2681,23,4,1,41,3696,0
2682,23,4,2,42,7141,0
2683,23,4,3,43,4507,1
2684,23,4,4,44,2093,0
2685,23,4,5,45,7671,1
2686,23,24,1,46,7070,0
2687,23,24,2,47,3424,0
2688,23,24,3,48,1532,0
2689,23,24,4,49,4106,0
2690,23,24,5,50,3625,1
2691,23,18,1,51,5708,1
2692,23,18,2,52,4086,1
2693,23,18,3,53,2183,0
2694,23,18,4,54,3596,1
2695,23,18,5,55,3785,0
2696,23,6,1,56,4337,0
2697,23,6,2,57,6519,1
2698,23,6,3,58,1572,1
2699,23,6,4,59,1923,1
2700,23,6,5,60,6349,0
2701,23,16,1,61,10505,0
2702,23,16,2,62,3385,1
2703,23,16,3,63,2043,1
2704,23,16,4,64,2674,1
2705,23,16,5,65,3526,1
2706,23,19,1,66,6670,1
2707,23,19,2,67,8052,0
2708,23,19,3,68,2263,0
2709,23,19,4,69,4637,0
2710,23,19,5,70,4627,0
2711,23,8,1,71,3044,1
2712,23,8,2,72,5218,0
2713,23,8,3,73,2053,1
2714,23,8,4,74,1912,1
2715,23,8,5,75,10525,0
2716,23,3,1,76,11035,1
2717,23,3,2,77,4106,0
2718,23,3,3,78,1652,1
2719,23,3,4,79,3045,0
2720,23,3,5,80,6820,0
2721,23,9,1,81,4256,0
2722,23,9,2,82,5118,1
2723,23,9,3,83,2163,0
2724,23,9,4,84,1912,0
2725,23,9,5,85,7641,1
2726,23,21,1,86,14861,0
2727,23,21,2,87,7531,1
2728,23,21,3,88,1923,1
2729,23,21,4,89,3826,0
2730,23,21,5,90,4196,1
2731,23,12,1,91,4617,1
2732,23,12,2,92,4466,1
2733,23,12,3,93,2413,1
2734,23,12,4,94,1733,1
2735,23,12,5,95,6439,0
2736,23,23,1,96,4337,1
2737,23,23,2,97,7170,0
2738,23,23,3,98,1852,0
2739,23,23,4,99,2254,0
2740,23,23,5,100,4716,0
2741,23,15,1,101,6259,1
2742,23,15,2,102,3715,1
2743,23,15,3,103,1713,0
2744,23,15,4,104,2544,0
2745,23,15,5,105,3705,0
2746,23,22,1,106,4667,0
2747,23,22,2,107,4486,0
2748,23,22,3,108,2113,0
2749,23,22,4,109,3295,1
2750,23,22,5,110,3395,0
2751,23,11,1,111,6820,1
2752,23,11,2,112,4797,1
2753,23,11,3,113,2263,0
2754,23,11,4,114,4306,1
2755,23,11,5,115,7882,0
2756,23,20,1,116,6059,0
2757,23,20,2,117,4206,0
2758,23,20,3,118,2353,0
2759,23,20,4,119,3034,0
2760,23,20,5,120,2894,1
2761,24,21,1,1,12108,0
2762,24,21,2,2,8342,1
2763,24,21,3,3,4436,1
2764,24,21,4,4,6589,0
2765,24,21,5,5,4266,1
2766,24,16,1,6,4606,1
2767,24,16,2,7,3865,1
2768,24,16,3,8,2373,1
2769,24,16,4,9,3105,1
2770,24,16,5,10,3795,1
2771,24,10,1,11,4677,0
2772,24,10,2,12,3415,0
2773,24,10,3,13,2033,1
2774,24,10,4,14,2323,1
2775,24,10,5,15,11346,0
2776,24,4,1,16,5518,0
2777,24,4,2,17,7781,0
2778,24,4,3,18,2374,1
2779,24,4,4,19,2244,0
2780,24,4,5,20,7090,1
2781,24,22,1,21,4987,0
2782,24,22,2,22,4126,0
2783,24,22,3,23,1862,0
2784,24,22,4,24,2394,1
2785,24,22,5,25,3505,0
2786,24,6,1,26,4216,0
2787,24,6,2,27,3015,1
2788,24,6,3,28,1983,1
2789,24,6,4,29,1993,1
2790,24,6,5,30,6439,0
2791,24,20,1,31,6810,0
2792,24,20,2,32,6319,0
2793,24,20,3,33,3055,0
2794,24,20,4,34,3305,0
2795,24,20,5,35,5077,1
2796,24,1,1,36,5478,1
2797,24,1,2,37,4496,1
2798,24,1,3,38,1842,0
2799,24,1,4,39,2263,1
2800,24,1,5,40,6229,0
2801,24,19,1,41,6439,1
2802,24,19,2,42,7982,0
2803,24,19,3,43,1762,0
2804,24,19,4,44,4396,0
2805,24,19,5,45,4427,0
2806,24,23,1,46,4316,1
2807,24,23,2,47,3986,0
2808,24,23,3,48,2013,0
2809,24,23,4,49,1712,0
2810,24,23,5,50,3796,0
2811,24,9,1,51,6580,0
2812,24,9,2,52,8632,1
2813,24,9,3,53,2183,0
2814,24,9,4,54,1623,0
2815,24,9,5,55,11156,1
2816,24,18,1,56,5869,1
2817,24,18,2,57,3836,1
2818,24,18,3,58,2564,0
2819,24,18,4,59,2824,1
2820,24,18,5,60,3845,0
2821,24,2,1,61,6219,1
2822,24,2,2,62,4046,0
2823,24,2,3,63,2995,0
2824,24,2,4,64,1742,0
2825,24,2,5,65,6549,1
2826,24,7,1,66,6690,1
2827,24,7,2,67,4507,1
2828,24,7,3,68,1973,1
2829,24,7,4,69,2133,0
2830,24,7,5,70,7030,0
2831,24,15,1,71,5518,1
2832,24,15,2,72,3605,1
2833,24,15,3,73,2133,0
2834,24,15,4,74,2383,0
2835,24,15,5,75,3345,0
2836,24,14,1,76,5498,0
2837,24,14,2,77,3455,1
2838,24,14,3,78,2223,1
2839,24,14,4,79,3715,0
2840,24,14,5,80,4026,1
2841,24,11,1,81,5477,1
2842,24,11,2,82,10034,1
2843,24,11,3,83,2464,0
2844,24,11,4,84,2083,1
2845,24,11,5,85,7270,0
2846,24,13,1,86,4717,1
2847,24,13,2,87,4667,1
2848,24,13,3,88,1953,1
2849,24,13,4,89,1812,1
2850,24,13,5,90,4006,1
2851,24,3,1,91,4617,1
2852,24,3,2,92,3555,1
2853,24,3,3,93,2804,1
2854,24,3,4,94,2984,0
2855,24,3,5,95,6489,0
2856,24,17,1,96,4136,0
2857,24,17,2,97,3946,1
2858,24,17,3,98,2523,1
2859,24,17,4,99,1742,1
2860,24,17,5,100,1913,0
2861,24,12,1,101,6780,1
2862,24,12,2,102,3095,1
2863,24,12,3,103,1582,1
2864,24,12,4,104,1662,1
2865,24,12,5,105,6449,0
2866,24,8,1,106,4427,1
2867,24,8,2,107,3455,0
2868,24,8,3,108,1552,1
2869,24,8,4,109,1562,1
2870,24,8,5,110,7581,0
2871,24,24,1,111,7090,0
2872,24,24,2,112,3415,0
2873,24,24,3,113,1533,0
2874,24,24,4,114,2033,0
2875,24,24,5,115,3736,1
2876,24,5,1,116,10665,1
2877,24,5,2,117,8111,1
2878,24,5,3,118,1683,0
2879,24,5,4,119,2133,1
2880,24,5,5,120,7431,1
2881,25,8,1,1,2964,1
2882,25,8,2,2,2824,0
2883,25,8,3,3,5197,1
2884,25,8,4,4,2684,1
2885,25,8,5,5,8913,0
2886,25,19,1,6,8062,1
2887,25,19,2,7,9554,0
2888,25,19,3,8,3595,0
2889,25,19,4,9,5648,0
2890,25,19,5,10,6039,0
2891,25,11,1,11,8362,1
2892,25,11,2,12,4827,1
2893,25,11,3,13,3395,0
2894,25,11,4,14,4026,1
2895,25,11,5,15,7491,0
2896,25,15,1,16,6710,1
2897,25,15,2,17,3195,1
2898,25,15,3,18,1792,0
2899,25,15,4,19,2764,0
2900,25,15,5,20,3545,0
2901,25,14,1,21,8081,0
2902,25,14,2,22,4987,0
2903,25,14,3,23,3716,0
2904,25,14,4,24,3845,0
2905,25,14,5,25,4016,0
2906,25,12,1,26,6900,1
2907,25,12,2,27,3665,1
2908,25,12,3,28,2664,1
2909,25,12,4,29,1913,1
2910,25,12,5,30,6720,0
2911,25,6,1,31,6390,0
2912,25,6,2,32,7521,1
2913,25,6,3,33,1602,1
2914,25,6,4,34,1822,1
2915,25,6,5,35,6389,0
2916,25,20,1,36,6259,0
2917,25,20,2,37,6600,0
2918,25,20,3,38,3656,0
2919,25,20,4,39,2594,0
2920,25,20,5,40,7481,1
2921,25,10,1,41,8291,0
2922,25,10,2,42,4326,0
2923,25,10,3,43,2754,1
2924,25,10,4,44,2033,1
2925,25,10,5,45,8292,0
2926,25,21,1,46,7942,0
2927,25,21,2,47,7591,1
2928,25,21,3,48,1442,1
2929,25,21,4,49,4987,0
2930,25,21,5,50,3375,1
2931,25,18,1,51,4417,1
2932,25,18,2,52,3365,1
2933,25,18,3,53,2003,0
2934,25,18,4,54,3044,1
2935,25,18,5,55,3635,0
2936,25,1,1,56,4236,1
2937,25,1,2,57,4927,1
2938,25,1,3,58,2614,0
2939,25,1,4,59,2373,1
2940,25,1,5,60,6139,0
2941,25,17,1,61,5328,0
2942,25,17,2,62,3655,1
2943,25,17,3,63,2313,1
2944,25,17,4,64,1702,1
2945,25,17,5,65,2143,0
2946,25,16,1,66,4657,1
2947,25,16,2,67,8762,1
2948,25,16,3,68,3134,1
2949,25,16,4,69,3284,1
2950,25,16,5,70,3715,1
2951,25,23,1,71,4347,1
2952,25,23,2,72,3705,0
2953,25,23,3,73,1722,0
2954,25,23,4,74,1943,0
2955,25,23,5,75,3905,0
2956,25,9,1,76,4326,0
2957,25,9,2,77,4988,1
2958,25,9,3,78,2033,0
2959,25,9,4,79,1843,0
2960,25,9,5,80,7090,1
2961,25,24,1,81,7311,0
2962,25,24,2,82,3515,0
2963,25,24,3,83,1112,0
2964,25,24,4,84,3395,0
2965,25,24,5,85,3816,1
2966,25,13,1,86,5709,1
2967,25,13,2,87,5809,1
2968,25,13,3,88,1862,1
2969,25,13,4,89,2404,1
2970,25,13,5,90,3475,1
2971,25,4,1,91,2874,0
2972,25,4,2,92,7200,0
2973,25,4,3,93,4246,1
2974,25,4,4,94,2093,0
2975,25,4,5,95,6600,1
2976,25,22,1,96,4707,0
2977,25,22,2,97,3995,0
2978,25,22,3,98,1823,0
2979,25,22,4,99,2764,1
2980,25,22,5,100,2964,0
2981,25,7,1,101,13440,1
2982,25,7,2,102,5738,1
2983,25,7,3,103,2483,1
2984,25,7,4,104,3645,0
2985,25,7,5,105,8692,0
2986,25,3,1,106,7921,1
2987,25,3,2,107,3946,0
2988,25,3,3,108,1443,1
2989,25,3,4,109,2584,0
2990,25,3,5,110,6689,0
2991,25,2,1,111,8242,1
2992,25,2,2,112,5117,0
2993,25,2,3,113,2343,0
2994,25,2,4,114,2384,0
2995,25,2,5,115,8042,1
2996,25,5,1,116,4085,1
2997,25,5,2,117,4026,1
2998,25,5,3,118,2463,0
2999,25,5,4,119,1873,1
3000,25,5,5,120,6820,1
3001,26,18,1,1,6349,1
3002,26,18,2,2,4246,1
3003,26,18,3,3,6028,0
3004,26,18,4,4,3886,1
3005,26,18,5,5,5708,0
3006,26,20,1,6,6249,0
3007,26,20,2,7,3696,0
3008,26,20,3,8,3125,0
3009,26,20,4,9,3786,0
3010,26,20,5,10,2724,1
3011,26,6,1,11,3896,0
3012,26,6,2,12,3024,1
3013,26,6,3,13,2343,1
3014,26,6,4,14,2493,1
3015,26,6,5,15,6349,0
3016,26,19,1,16,6329,1
3017,26,19,2,17,7951,0
3018,26,19,3,18,2043,0
3019,26,19,4,19,4477,0
3020,26,19,5,20,4416,0
3021,26,17,1,21,3806,0
3022,26,17,2,22,6198,1
3023,26,17,3,23,2413,1
3024,26,17,4,24,2083,1
3025,26,17,5,25,2113,0
3026,26,22,1,26,4687,0
3027,26,22,2,27,3926,0
3028,26,22,3,28,1892,0
3029,26,22,4,29,3225,1
3030,26,22,5,30,3155,0
3031,26,7,1,31,7300,1
3032,26,7,2,32,4957,1
3033,26,7,3,33,2734,1
3034,26,7,4,34,2864,0
3035,26,7,5,35,8262,0
3036,26,21,1,36,6759,0
3037,26,21,2,37,7571,1
3038,26,21,3,38,1412,1
3039,26,21,4,39,3795,0
3040,26,21,5,40,4476,1
3041,26,24,1,41,6469,0
3042,26,24,2,42,3065,0
3043,26,24,3,43,1202,0
3044,26,24,4,44,5999,1
3045,26,24,5,45,3645,1
3046,26,1,1,46,5859,1
3047,26,1,2,47,5558,1
3048,26,1,3,48,1692,0
3049,26,1,4,49,2474,1
3050,26,1,5,50,6469,0
3051,26,13,1,51,5137,1
3052,26,13,2,52,4317,1
3053,26,13,3,53,2483,1
3054,26,13,4,54,3726,1
3055,26,13,5,55,4146,1
3056,26,5,1,56,11026,1
3057,26,5,2,57,6249,1
3058,26,5,3,58,1913,0
3059,26,5,4,59,3375,1
3060,26,5,5,60,8442,0
3061,26,14,1,61,5448,0
3062,26,14,2,62,4967,0
3063,26,14,3,63,2093,0
3064,26,14,4,64,4066,0
3065,26,14,5,65,3976,0
3066,26,8,1,66,5077,1
3067,26,8,2,67,3225,0
3068,26,8,3,68,2293,1
3069,26,8,4,69,2003,1
3070,26,8,5,70,7391,0
3071,26,23,1,71,4136,1
3072,26,23,2,72,7041,0
3073,26,23,3,73,1572,0
3074,26,23,4,74,2023,0
3075,26,23,5,75,4867,0
3076,26,2,1,76,5839,1
3077,26,2,2,77,4867,0
3078,26,2,3,78,2163,0
3079,26,2,4,79,1963,0
3080,26,2,5,80,6940,1
3081,26,15,1,81,4887,1
3082,26,15,2,82,2904,1
3083,26,15,3,83,1462,0
3084,26,15,4,84,2554,0
3085,26,15,5,85,3545,0
3086,26,9,1,86,6088,0
3087,26,9,2,87,6579,1
3088,26,9,3,88,2433,0
3089,26,9,4,89,2294,0
3090,26,9,5,90,8732,1
3091,26,11,1,91,5328,1
3092,26,11,2,92,9113,1
3093,26,11,3,93,2414,0
3094,26,11,4,94,2354,1
3095,26,11,5,95,8231,0
3096,26,3,1,96,4547,1
3097,26,3,2,97,4827,0
3098,26,3,3,98,2864,1
3099,26,3,4,99,4276,0
3100,26,3,5,100,6840,0
3101,26,10,1,101,4186,0
3102,26,10,2,102,3465,0
3103,26,10,3,103,1612,1
3104,26,10,4,104,2323,1
3105,26,10,5,105,10735,0
3106,26,16,1,106,4307,1
3107,26,16,2,107,4046,1
3108,26,16,3,108,1592,1
3109,26,16,4,109,2554,1
3110,26,16,5,110,3786,1
3111,26,12,1,111,5127,1
3112,26,12,2,112,3565,1
3113,26,12,3,113,2855,1
3114,26,12,4,114,2163,1
3115,26,12,5,115,6279,0
3116,26,4,1,116,5117,0
3117,26,4,2,117,7180,0
3118,26,4,3,118,2543,1
3119,26,4,4,119,2203,0
3120,26,4,5,120,7100,1
3121,27,11,1,1,7611,1
3122,27,11,2,2,4777,0
3123,27,11,3,3,2654,1
3124,27,11,4,4,4476,1
3125,27,11,5,5,11547,1
3126,27,12,1,6,5468,1
3127,27,12,2,7,5037,1
3128,27,12,3,8,2603,1
3129,27,12,4,9,2273,1
3130,27,12,5,10,6539,0
3131,27,15,1,11,6539,1
3132,27,15,2,12,3815,1
3133,27,15,3,13,2453,0
3134,27,15,4,14,2123,0
3135,27,15,5,15,3685,0
3136,27,4,1,16,2905,0
3137,27,4,2,17,7671,0
3138,27,4,3,18,5137,1
3139,27,4,4,19,3115,0
3140,27,4,5,20,7771,1
3141,27,1,1,21,4716,1
3142,27,1,2,22,5468,1
3143,27,1,3,23,2914,0
3144,27,1,4,24,2774,1
3145,27,1,5,25,7431,0
3146,27,9,1,26,5188,0
3147,27,9,2,27,7030,1
3148,27,9,3,28,2744,0
3149,27,9,4,29,2123,0
3150,27,9,5,30,8592,1
3151,27,16,1,31,7110,0
3152,27,16,2,32,4056,0
3153,27,16,3,33,2414,1
3154,27,16,4,34,3254,1
3155,27,16,5,35,4316,1
3156,27,6,1,36,7161,0
3157,27,6,2,37,6749,1
3158,27,6,3,38,1873,1
3159,27,6,4,39,2253,1
3160,27,6,5,40,7070,0
3161,27,3,1,41,9894,1
3162,27,3,2,42,5659,0
3163,27,3,3,43,1713,1
3164,27,3,4,44,2954,0
3165,27,3,5,45,7901,0
3166,27,2,1,46,5658,1
3167,27,2,2,47,5598,0
3168,27,2,3,48,2744,0
3169,27,2,4,49,2684,0
3170,27,2,5,50,8532,1
3171,27,19,1,51,6149,1
3172,27,19,2,52,8542,0
3173,27,19,3,53,2454,0
3174,27,19,4,54,5088,0
3175,27,19,5,55,4997,0
3176,27,18,1,56,6560,1
3177,27,18,2,57,4467,1
3178,27,18,3,58,3435,0
3179,27,18,4,59,3825,1
3180,27,18,5,60,4897,0
3181,27,24,1,61,10906,0
3182,27,24,2,62,3795,0
3183,27,24,3,63,2633,0
3184,27,24,4,64,6028,0
3185,27,24,5,65,3906,1
3186,27,14,1,66,6640,0
3187,27,14,2,67,9955,0
3188,27,14,3,68,2744,0
3189,27,14,4,69,4145,0
3190,27,14,5,70,4907,0
3191,27,8,1,71,3826,1
3192,27,8,2,72,4236,0
3193,27,8,3,73,2173,1
3194,27,8,4,74,2233,1
3195,27,8,5,75,9204,1
3196,27,10,1,76,6860,0
3197,27,10,2,77,3936,0
3198,27,10,3,78,3045,1
3199,27,10,4,79,2494,1
3200,27,10,5,80,11877,0
3201,27,23,1,81,4717,1
3202,27,23,2,82,7782,0
3203,27,23,3,83,2263,0
3204,27,23,4,84,2534,0
3205,27,23,5,85,4607,0
3206,27,17,1,86,4337,0
3207,27,17,2,87,5248,1
3208,27,17,3,88,2404,1
3209,27,17,4,89,2173,1
3210,27,17,5,90,2483,0
3211,27,20,1,91,6780,0
3212,27,20,2,92,7130,0
3213,27,20,3,93,2714,0
3214,27,20,4,94,3485,0
3215,27,20,5,95,4457,1
3216,27,7,1,96,12828,1
3217,27,7,2,97,6039,1
3218,27,7,3,98,2814,1
3219,27,7,4,99,4116,0
3220,27,7,5,100,8552,0
3221,27,5,1,101,8663,1
3222,27,5,2,102,5828,1
3223,27,5,3,103,2724,0
3224,27,5,4,104,2944,1
3225,27,5,5,105,7702,1
3226,27,22,1,106,6139,0
3227,27,22,2,107,5268,0
3228,27,22,3,108,2073,0
3229,27,22,4,109,3185,1
3230,27,22,5,110,3335,0
3231,27,13,1,111,6009,1
3232,27,13,2,112,9013,1
3233,27,13,3,113,2934,1
3234,27,13,4,114,4306,1
3235,27,13,5,115,4216,1
3236,27,21,1,116,19478,0
3237,27,21,2,117,7852,1
3238,27,21,3,118,1893,1
3239,27,21,4,119,4587,0
3240,27,21,5,120,5067,1
3241,28,9,1,1,6750,0
3242,28,9,2,2,6599,1
3243,28,9,3,3,3014,0
3244,28,9,4,4,2524,0
3245,28,9,5,5,7491,1
3246,28,18,1,6,6940,1
3247,28,18,2,7,4016,1
3248,28,18,3,8,2203,0
3249,28,18,4,9,3094,1
3250,28,18,5,10,3284,0
3251,28,20,1,11,7091,0
3252,28,20,2,12,4647,0
3253,28,20,3,13,2414,0
3254,28,20,4,14,3365,0
3255,28,20,5,15,2664,1
3256,28,21,1,16,6679,0
3257,28,21,2,17,7761,1
3258,28,21,3,18,1713,1
3259,28,21,4,19,4887,0
3260,28,21,5,20,3795,1
3261,28,14,1,21,7411,1
3262,28,14,2,22,4457,0
3263,28,14,3,23,2144,0
3264,28,14,4,24,3054,0
3265,28,14,5,25,3926,0
3266,28,22,1,26,5257,0
3267,28,22,2,27,3965,0
3268,28,22,3,28,1843,0
3269,28,22,4,29,2794,1
3270,28,22,5,30,3255,0
3271,28,3,1,31,4336,1
3272,28,3,2,32,4166,0
3273,28,3,3,33,2404,1
3274,28,3,4,34,2454,0
3275,28,3,5,35,7181,0
3276,28,2,1,36,5298,1
3277,28,2,2,37,3686,0
3278,28,2,3,38,2214,0
3279,28,2,4,39,2223,0
3280,28,2,5,40,7150,1
3281,28,17,1,41,3756,0
3282,28,17,2,42,3935,1
3283,28,17,3,43,2073,1
3284,28,17,4,44,1703,1
3285,28,17,5,45,1893,0
3286,28,7,1,46,7001,1
3287,28,7,2,47,4436,1
3288,28,7,3,48,2433,1
3289,28,7,4,49,2113,0
3290,28,7,5,50,5949,0
3291,28,19,1,51,6450,1
3292,28,19,2,52,8132,0
3293,28,19,3,53,1663,0
3294,28,19,4,54,4587,0
3295,28,19,5,55,3916,0
3296,28,4,1,56,5267,0
3297,28,4,2,57,7050,0
3298,28,4,3,58,1793,1
3299,28,4,4,59,2514,0
3300,28,4,5,60,6679,1
3301,28,5,1,61,7201,0
3302,28,5,2,62,7741,1
3303,28,5,3,63,2033,0
3304,28,5,4,64,3004,1
3305,28,5,5,65,8152,1
3306,28,24,1,66,7441,0
3307,28,24,2,67,3305,0
3308,28,24,3,68,1372,0
3309,28,24,4,69,3305,0
3310,28,24,5,70,3725,1
3311,28,6,1,71,4416,0
3312,28,6,2,72,3294,1
3313,28,6,3,73,1802,1
3314,28,6,4,74,3054,1
3315,28,6,5,75,5979,0
3316,28,16,1,76,4346,1
3317,28,16,2,77,2804,0
3318,28,16,3,78,1642,1
3319,28,16,4,79,2343,1
3320,28,16,5,80,3636,1
3321,28,11,1,81,5458,1
3322,28,11,2,82,9253,1
3323,28,11,3,83,3024,0
3324,28,11,4,84,2644,1
3325,28,11,5,85,7811,0
3326,28,8,1,86,4216,1
3327,28,8,2,87,3084,0
3328,28,8,3,88,1412,1
3329,28,8,4,89,1912,1
3330,28,8,5,90,5527,0
3331,28,10,1,91,3776,0
3332,28,10,2,92,3715,0
3333,28,10,3,93,1653,1
3334,28,10,4,94,2564,1
3335,28,10,5,95,8212,0
3336,28,12,1,96,4547,1
3337,28,12,2,97,3235,1
3338,28,12,3,98,1663,1
3339,28,12,4,99,2414,1
3340,28,12,5,100,6819,0
3341,28,1,1,101,5247,1
3342,28,1,2,102,5028,1
3343,28,1,3,103,1522,0
3344,28,1,4,104,1833,1
3345,28,1,5,105,6709,0
3346,28,23,1,106,4476,1
3347,28,23,2,107,4797,0
3348,28,23,3,108,1512,0
3349,28,23,4,109,1882,0
3350,28,23,5,110,3966,0
3351,28,15,1,111,4877,0
3352,28,15,2,112,3846,1
3353,28,15,3,113,1653,0
3354,28,15,4,114,1582,0
3355,28,15,5,115,3425,0
3356,28,13,1,116,5008,1
3357,28,13,2,117,4817,1
3358,28,13,3,118,1713,1
3359,28,13,4,119,2363,1
3360,28,13,5,120,3475,1
3361,29,8,1,1,3195,1
3362,29,8,2,2,3405,0
3363,29,8,3,3,5147,1
3364,29,8,4,4,2293,1
3365,29,8,5,5,10245,0
3366,29,3,1,6,12809,1
3367,29,3,2,7,5318,0
3368,29,3,3,8,1933,1
3369,29,3,4,9,3144,0
3370,29,3,5,10,7350,0
3371,29,18,1,11,6038,1
3372,29,18,2,12,4766,1
3373,29,18,3,13,2493,0
3374,29,18,4,14,4727,1
3375,29,18,5,15,4056,0
3376,29,13,1,16,6329,1
3377,29,13,2,17,7031,1
3378,29,13,3,18,3215,1
3379,29,13,4,19,4116,1
3380,29,13,5,20,6379,1
3381,29,17,1,21,4587,0
3382,29,17,2,22,7801,1
3383,29,17,3,23,2504,1
3384,29,17,4,24,2173,1
3385,29,17,5,25,2313,0
3386,29,16,1,26,4737,1
3387,29,16,2,27,5308,1
3388,29,16,3,28,2373,1
3389,29,16,4,29,2884,1
3390,29,16,5,30,5318,1
3391,29,4,1,31,3255,0
3392,29,4,2,32,7972,0
3393,29,4,3,33,5848,1
3394,29,4,4,34,2384,0
3395,29,4,5,35,7381,1
3396,29,23,1,36,4887,1
3397,29,23,2,37,7471,0
3398,29,23,3,38,2143,0
3399,29,23,4,39,2423,0
3400,29,23,5,40,5779,0
3401,29,1,1,41,9414,1
3402,29,1,2,42,6309,1
3403,29,1,3,43,3896,0
3404,29,1,4,44,3315,1
3405,29,1,5,45,8532,0
3406,29,2,1,46,8102,1
3407,29,2,2,47,8642,0
3408,29,2,3,48,3275,0
3409,29,2,4,49,3465,0
3410,29,2,5,50,8413,1
3411,29,9,1,51,4827,0
3412,29,9,2,52,9454,1
3413,29,9,3,53,2494,0
3414,29,9,4,54,2153,0
3415,29,9,5,55,8673,1
3416,29,11,1,56,8642,1
3417,29,11,2,57,7230,1
3418,29,11,3,58,3065,0
3419,29,11,4,59,3275,1
3420,29,11,5,60,8842,0
3421,29,12,1,61,4696,1
3422,29,12,2,62,4877,1
3423,29,12,3,63,3405,1
3424,29,12,4,64,2854,1
3425,29,12,5,65,7731,0
3426,29,24,1,66,8393,0
3427,29,24,2,67,4977,0
3428,29,24,3,68,1773,0
3429,29,24,4,69,4507,0
3430,29,24,5,70,4236,1
3431,29,19,1,71,8091,1
3432,29,19,2,72,11046,0
3433,29,19,3,73,2704,0
3434,29,19,4,74,5478,0
3435,29,19,5,75,5338,0
3436,29,15,1,76,6519,1
3437,29,15,2,77,4266,1
3438,29,15,3,78,2794,0
3439,29,15,4,79,3675,0
3440,29,15,5,80,4717,0
3441,29,14,1,81,7991,0
3442,29,14,2,82,9864,0
3443,29,14,3,83,3115,0
3444,29,14,4,84,4696,0
3445,29,14,5,85,5518,0
3446,29,10,1,86,8582,0
3447,29,10,2,87,7481,0
3448,29,10,3,88,3345,1
3449,29,10,4,89,3805,1
3450,29,10,5,90,10925,0
3451,29,20,1,91,7951,0
3452,29,20,2,92,5758,0
3453,29,20,3,93,4246,0
3454,29,20,4,94,3756,0
3455,29,20,5,95,7070,1
3456,29,6,1,96,7361,0
3457,29,6,2,97,8452,1
3458,29,6,3,98,2514,1
3459,29,6,4,99,3105,1
3460,29,6,5,100,7581,0
3461,29,5,1,101,6399,1
3462,29,5,2,102,5488,1
3463,29,5,3,103,3746,0
3464,29,5,4,104,3245,1
3465,29,5,5,105,7801,1
3466,29,22,1,106,7260,0
3467,29,22,2,107,5298,0
3468,29,22,3,108,2944,0
3469,29,22,4,109,4086,1
3470,29,22,5,110,4376,0
3471,29,7,1,111,13670,1
3472,29,7,2,112,6159,1
3473,29,7,3,113,3134,1
3474,29,7,4,114,4767,0
3475,29,7,5,115,8923,0
3476,29,21,1,116,13148,0
3477,29,21,2,117,8863,1
3478,29,21,3,118,2073,1
3479,29,21,4,119,6269,0
3480,29,21,5,120,5819,1
3481,30,19,1,1,6630,1
3482,30,19,2,2,8071,0
3483,30,19,3,3,3115,0
3484,30,19,4,4,5097,0
3485,30,19,5,5,4676,0
3486,30,14,1,6,6369,0
3487,30,14,2,7,11847,0
3488,30,14,3,8,3656,0
3489,30,14,4,9,4516,0
3490,30,14,5,10,6229,0
3491,30,5,1,11,8132,0
3492,30,5,2,12,7251,1
3493,30,5,3,13,2273,0
3494,30,5,4,14,3395,1
3495,30,5,5,15,8492,1
3496,30,23,1,16,4806,1
3497,30,23,2,17,6589,0
3498,30,23,3,18,2073,0
3499,30,23,4,19,2083,0
3500,30,23,5,20,4697,0
3501,30,18,1,21,5808,1
3502,30,18,2,22,3846,1
3503,30,18,3,23,2744,0
3504,30,18,4,24,3775,1
3505,30,18,5,25,4346,0
3506,30,8,1,26,4256,1
3507,30,8,2,27,3546,0
3508,30,8,3,28,2223,1
3509,30,8,4,29,2133,1
3510,30,8,5,30,8983,0
3511,30,20,1,31,6028,0
3512,30,20,2,32,5869,0
3513,30,20,3,33,2594,0
3514,30,20,4,34,3986,0
3515,30,20,5,35,3986,1
3516,30,24,1,36,8462,0
3517,30,24,2,37,3415,0
3518,30,24,3,38,1522,0
3519,30,24,4,39,4236,0
3520,30,24,5,40,3685,1
3521,30,22,1,41,5388,0
3522,30,22,2,42,3976,0
3523,30,22,3,43,1942,0
3524,30,22,4,44,2944,1
3525,30,22,5,45,3025,0
3526,30,13,1,46,5097,1
3527,30,13,2,47,5788,1
3528,30,13,3,48,2494,1
3529,30,13,4,49,3455,1
3530,30,13,5,50,3645,1
3531,30,4,1,51,5307,0
3532,30,4,2,52,7862,0
3533,30,4,3,53,2544,1
3534,30,4,4,54,2414,0
3535,30,4,5,55,6850,1
3536,30,21,1,56,11546,0
3537,30,21,2,57,7631,1
3538,30,21,3,58,1613,1
3539,30,21,4,59,4567,0
3540,30,21,5,60,4096,1
3541,30,2,1,61,6519,1
3542,30,2,2,62,5338,0
3543,30,2,3,63,2464,0
3544,30,2,4,64,2062,0
3545,30,2,5,65,7311,1
3546,30,12,1,66,4797,1
3547,30,12,2,67,4346,1
3548,30,12,3,68,1853,1
3549,30,12,4,69,2604,1
3550,30,12,5,70,6470,0
3551,30,16,1,71,4126,1
3552,30,16,2,72,3685,1
3553,30,16,3,73,1732,1
3554,30,16,4,74,2474,1
3555,30,16,5,75,3475,1
3556,30,10,1,76,4627,0
3557,30,10,2,77,4736,0
3558,30,10,3,78,1662,1
3559,30,10,4,79,2774,1
3560,30,10,5,80,10536,0
3561,30,3,1,81,7761,1
3562,30,3,2,82,4606,0
3563,30,3,3,83,3024,1
3564,30,3,4,84,4156,0
3565,30,3,5,85,6680,0
3566,30,11,1,86,5678,1
3567,30,11,2,87,11266,1
3568,30,11,3,88,3015,0
3569,30,11,4,89,2594,1
3570,30,11,5,90,8232,0
3571,30,1,1,91,6450,1
3572,30,1,2,92,7440,1
3573,30,1,3,93,1742,0
3574,30,1,4,94,2264,1
3575,30,1,5,95,6069,0
3576,30,15,1,96,4867,1
3577,30,15,2,97,3125,1
3578,30,15,3,98,1683,0
3579,30,15,4,99,2263,0
3580,30,15,5,100,3395,0
3581,30,17,1,101,3686,0
3582,30,17,2,102,7210,1
3583,30,17,3,103,2133,1
3584,30,17,4,104,1913,1
3585,30,17,5,105,2243,0
3586,30,9,1,106,6459,0
3587,30,9,2,107,8132,1
3588,30,9,3,108,2163,0
3589,30,9,4,109,2143,0
3590,30,9,5,110,10845,1
3591,30,6,1,111,5378,0
3592,30,6,2,112,3054,1
3593,30,6,3,113,2083,1
3594,30,6,4,114,2554,1
3595,30,6,5,115,6139,0
3596,30,7,1,116,8312,1
3597,30,7,2,117,4586,1
3598,30,7,3,118,1922,1
3599,30,7,4,119,3014,0
3600,30,7,5,120,10295,0
3601,31,6,1,1,8722,0
3602,31,6,2,2,6820,1
3603,31,6,3,3,4446,1
3604,31,6,4,4,2563,1
3605,31,6,5,5,7681,0
3606,31,9,1,6,5408,0
3607,31,9,2,7,8172,1
3608,31,9,3,8,3735,0
3609,31,9,4,9,2413,0
3610,31,9,5,10,11096,1
3611,31,17,1,11,4126,0
3612,31,17,2,12,5087,1
3613,31,17,3,13,3675,1
3614,31,17,4,14,2163,1
3615,31,17,5,15,3124,0
3616,31,5,1,16,4897,1
3617,31,5,2,17,4596,1
3618,31,5,3,18,2784,0
3619,31,5,4,19,2904,1
3620,31,5,5,20,8683,1
3621,31,13,1,21,5909,1
3622,31,13,2,22,6790,1
3623,31,13,3,23,3535,1
3624,31,13,4,24,4076,1
3625,31,13,5,25,3836,1
3626,31,22,1,26,5978,0
3627,31,22,2,27,4487,0
3628,31,22,3,28,1832,0
3629,31,22,4,29,3165,1
3630,31,22,5,30,3565,0
3631,31,21,1,31,15081,0
3632,31,21,2,32,7682,1
3633,31,21,3,33,1593,1
3634,31,21,4,34,4687,0
3635,31,21,5,35,4386,1
3636,31,2,1,36,6600,1
3637,31,2,2,37,5498,0
3638,31,2,3,38,2524,0
3639,31,2,4,39,3135,0
3640,31,2,5,40,10786,1
3641,31,18,1,41,4306,1
3642,31,18,2,42,3595,1
3643,31,18,3,43,3825,0
3644,31,18,4,44,4095,1
3645,31,18,5,45,4606,0
3646,31,16,1,46,4687,1
3647,31,16,2,47,4506,1
3648,31,16,3,48,2123,1
3649,31,16,4,49,2844,1
3650,31,16,5,50,4267,1
3651,31,19,1,51,6459,1
3652,31,19,2,52,7782,0
3653,31,19,3,53,2053,0
3654,31,19,4,54,4957,0
3655,31,19,5,55,4887,0
3656,31,1,1,56,5077,1
3657,31,1,2,57,5838,1
3658,31,1,3,58,3275,0
3659,31,1,4,59,3315,1
3660,31,1,5,60,6709,0
3661,31,23,1,61,4276,1
3662,31,23,2,62,8012,0
3663,31,23,3,63,2053,0
3664,31,23,4,64,2403,0
3665,31,23,5,65,6159,0
3666,31,10,1,66,5418,0
3667,31,10,2,67,3685,0
3668,31,10,3,68,2814,1
3669,31,10,4,69,2694,1
3670,31,10,5,70,11166,0
3671,31,3,1,71,9194,1
3672,31,3,2,72,5638,0
3673,31,3,3,73,1762,1
3674,31,3,4,74,3495,0
3675,31,3,5,75,7631,0
3676,31,7,1,76,9884,1
3677,31,7,2,77,6118,1
3678,31,7,3,78,2594,1
3679,31,7,4,79,3766,0
3680,31,7,5,80,10045,0
3681,31,20,1,81,6409,0
3682,31,20,2,82,4687,0
3683,31,20,3,83,5147,0
3684,31,20,4,84,3194,0
3685,31,20,5,85,3295,1
3686,31,14,1,86,8001,0
3687,31,14,2,87,8822,0
3688,31,14,3,88,2864,0
3689,31,14,4,89,4196,0
3690,31,14,5,90,6559,0
3691,31,11,1,91,7731,1
3692,31,11,2,92,5408,1
3693,31,11,3,93,2283,0
3694,31,11,4,94,4566,1
3695,31,11,5,95,8072,0
3696,31,15,1,96,5578,1
3697,31,15,2,97,3725,1
3698,31,15,3,98,1872,0
3699,31,15,4,99,2603,0
3700,31,15,5,100,3334,0
3701,31,12,1,101,5047,1
3702,31,12,2,102,3616,1
3703,31,12,3,103,2654,1
3704,31,12,4,104,2323,1
3705,31,12,5,105,7811,0
3706,31,8,1,106,2954,1
3707,31,8,2,107,3265,0
3708,31,8,3,108,2093,1
3709,31,8,4,109,1983,1
3710,31,8,5,110,10485,0
3711,31,24,1,111,6710,0
3712,31,24,2,112,3615,0
3713,31,24,3,113,1192,0
3714,31,24,4,114,4227,0
3715,31,24,5,115,4296,1
3716,31,4,1,116,3505,0
3717,31,4,2,117,7410,0
3718,31,4,3,118,5117,1
3719,31,4,4,119,2854,0
3720,31,4,5,120,7131,1
3721,32,13,1,1,6009,1
3722,32,13,2,2,5398,1
3723,32,13,3,3,2864,1
3724,32,13,4,4,4056,1
3725,32,13,5,5,3945,1
3726,32,18,1,6,4757,1
3727,32,18,2,7,3355,1
3728,32,18,3,8,2504,0
3729,32,18,4,9,3295,1
3730,32,18,5,10,3444,0
3731,32,9,1,11,6189,0
3732,32,9,2,12,5638,1
3733,32,9,3,13,2474,0
3734,32,9,4,14,2083,0
3735,32,9,5,15,7260,1
3736,32,12,1,16,4396,1
3737,32,12,2,17,2974,1
3738,32,12,3,18,1803,1
3739,32,12,4,19,2073,1
3740,32,12,5,20,6018,0
3741,32,23,1,21,4046,1
3742,32,23,2,22,6159,0
3743,32,23,3,23,1763,0
3744,32,23,4,24,1853,0
3745,32,23,5,25,4076,0
3746,32,5,1,26,7001,0
3747,32,5,2,27,6078,1
3748,32,5,3,28,2404,0
3749,32,5,4,29,3034,1
3750,32,5,5,30,8983,1
3751,32,4,1,31,6429,0
3752,32,4,2,32,7120,0
3753,32,4,3,33,1753,1
3754,32,4,4,34,2103,0
3755,32,4,5,35,6670,1
3756,32,3,1,36,11036,1
3757,32,3,2,37,4386,0
3758,32,3,3,38,2564,1
3759,32,3,4,39,4277,0
3760,32,3,5,40,6660,0
3761,32,8,1,41,3626,1
3762,32,8,2,42,3325,0
3763,32,8,3,43,1722,1
3764,32,8,4,44,1833,1
3765,32,8,5,45,8502,0
3766,32,1,1,46,5808,1
3767,32,1,2,47,6890,1
3768,32,1,3,48,1843,0
3769,32,1,4,49,2453,1
3770,32,1,5,50,5979,0
3771,32,11,1,51,5298,1
3772,32,11,2,52,11197,1
3773,32,11,3,53,2364,0
3774,32,11,4,54,2043,1
3775,32,11,5,55,9374,0
3776,32,16,1,56,4126,1
3777,32,16,2,57,3355,1
3778,32,16,3,58,1883,1
3779,32,16,4,59,2704,1
3780,32,16,5,60,3705,1
3781,32,22,1,61,5057,0
3782,32,22,2,62,4006,0
3783,32,22,3,63,1952,0
3784,32,22,4,64,2584,1
3785,32,22,5,65,2985,0
3786,32,17,1,66,4025,0
3787,32,17,2,67,3725,1
3788,32,17,3,68,2393,1
3789,32,17,4,69,1883,1
3790,32,17,5,70,2023,0
3791,32,7,1,71,7511,1
3792,32,7,2,72,5808,1
3793,32,7,3,73,2133,1
3794,32,7,4,74,3755,0
3795,32,7,5,75,8001,0
3796,32,19,1,76,5828,1
3797,32,19,2,77,9103,0
3798,32,19,3,78,1992,0
3799,32,19,4,79,4296,0
3800,32,19,5,80,4527,0
3801,32,20,1,81,5688,0
3802,32,20,2,82,3495,0
3803,32,20,3,83,2594,0
3804,32,20,4,84,2794,0
3805,32,20,5,85,3575,1
3806,32,6,1,86,3986,0
3807,32,6,2,87,2854,1
3808,32,6,3,88,1893,1
3809,32,6,4,89,2463,1
3810,32,6,5,90,5878,0
3811,32,2,1,91,6179,1
3812,32,2,2,92,4777,0
3813,32,2,3,93,2163,0
3814,32,2,4,94,1822,0
3815,32,2,5,95,6029,1
3816,32,21,1,96,11486,0
3817,32,21,2,97,7350,1
3818,32,21,3,98,1502,1
3819,32,21,4,99,3585,0
3820,32,21,5,100,3145,1
3821,32,10,1,101,3345,0
3822,32,10,2,102,3445,0
3823,32,10,3,103,1573,1
3824,32,10,4,104,2224,1
3825,32,10,5,105,8703,0
3826,32,24,1,106,7200,0
3827,32,24,2,107,3275,0
3828,32,24,3,108,1282,0
3829,32,24,4,109,3255,0
3830,32,24,5,110,3695,1
3831,32,14,1,111,5718,0
3832,32,14,2,112,4196,0
3833,32,14,3,113,1963,0
3834,32,14,4,114,3475,0
3835,32,14,5,115,3495,0
3836,32,15,1,116,6008,1
3837,32,15,2,117,3305,1
3838,32,15,3,118,1292,0
3839,32,15,4,119,1782,0
3840,32,15,5,120,3535,0
3841,33,23,1,1,7621,1
3842,33,23,2,2,8322,0
3843,33,23,3,3,4717,0
3844,33,23,4,4,3986,0
3845,33,23,5,5,7981,0
3846,33,6,1,6,7420,0
3847,33,6,2,7,7831,1
3848,33,6,3,8,3485,1
3849,33,6,4,9,3325,1
3850,33,6,5,10,8652,0
3851,33,18,1,11,6810,1
3852,33,18,2,12,5107,1
3853,33,18,3,13,5127,0
3854,33,18,4,14,4997,1
3855,33,18,5,15,6910,0
3856,33,20,1,16,6760,0
3857,33,20,2,17,5478,0
3858,33,20,3,18,4637,0
3859,33,20,4,19,5358,0
3860,33,20,5,20,5788,1
3861,33,8,1,21,3485,1
3862,33,8,2,22,7101,0
3863,33,8,3,23,3165,1
3864,33,8,4,24,2624,1
3865,33,8,5,25,10875,0
3866,33,16,1,26,4927,1
3867,33,16,2,27,4948,1
3868,33,16,3,28,2574,1
3869,33,16,4,29,2965,1
3870,33,16,5,30,4296,1
3871,33,4,1,31,4327,0
3872,33,4,2,32,8342,0
3873,33,4,3,33,5858,1
3874,33,4,4,34,3705,0
3875,33,4,5,35,8813,1
3876,33,7,1,36,11917,1
3877,33,7,2,37,5929,1
3878,33,7,3,38,2553,1
3879,33,7,4,39,5408,0
3880,33,7,5,40,10906,0
3881,33,19,1,41,8292,1
3882,33,19,2,42,8783,0
3883,33,19,3,43,2774,0
3884,33,19,4,44,5708,0
3885,33,19,5,45,6539,0
3886,33,17,1,46,4136,0
3887,33,17,2,47,4357,1
3888,33,17,3,48,3686,1
3889,33,17,4,49,2624,1
3890,33,17,5,50,2634,0
3891,33,21,1,51,18116,0
3892,33,21,2,52,8553,1
3893,33,21,3,53,2053,1
3894,33,21,4,54,4286,0
3895,33,21,5,55,4796,1
3896,33,13,1,56,5538,1
3897,33,13,2,57,5999,1
3898,33,13,3,58,2383,1
3899,33,13,4,59,3816,1
3900,33,13,5,60,4806,1
3901,33,22,1,61,5197,0
3902,33,22,2,62,4747,0
3903,33,22,3,63,1983,0
3904,33,22,4,64,2844,1
3905,33,22,5,65,3245,0
3906,33,14,1,66,7221,0
3907,33,14,2,67,9825,0
3908,33,14,3,68,3205,0
3909,33,14,4,69,4686,0
3910,33,14,5,70,8883,0
3911,33,5,1,71,4647,1
3912,33,5,2,72,6810,1
3913,33,5,3,73,3375,0
3914,33,5,4,74,3465,1
3915,33,5,5,75,9944,1
3916,33,12,1,76,4156,1
3917,33,12,2,77,3986,1
3918,33,12,3,78,3675,1
3919,33,12,4,79,2073,1
3920,33,12,5,80,6900,0
3921,33,10,1,81,6830,0
3922,33,10,2,82,4516,0
3923,33,10,3,83,3304,1
3924,33,10,4,84,3355,1
3925,33,10,5,85,12098,0
3926,33,2,1,86,5318,1
3927,33,2,2,87,7180,0
3928,33,2,3,88,3716,0
3929,33,2,4,89,2885,0
3930,33,2,5,90,8623,1
3931,33,15,1,91,6279,1
3932,33,15,2,92,4036,1
3933,33,15,3,93,2204,0
3934,33,15,4,94,2163,0
3935,33,15,5,95,3785,0
3936,33,3,1,96,11126,1
3937,33,3,2,97,5168,0
3938,33,3,3,98,1723,1
3939,33,3,4,99,3285,0
3940,33,3,5,100,7681,0
3941,33,24,1,101,8352,0
3942,33,24,2,102,3726,0
3943,33,24,3,103,1432,0
3944,33,24,4,104,6820,0
3945,33,24,5,105,4376,1
3946,33,9,1,106,4467,0
3947,33,9,2,107,8412,1
3948,33,9,3,108,3905,0
3949,33,9,4,109,2273,0
3950,33,9,5,110,7270,1
3951,33,1,1,111,7591,1
3952,33,1,2,112,5448,1
3953,33,1,3,113,2684,0
3954,33,1,4,114,2874,1
3955,33,1,5,115,6399,0
3956,33,11,1,116,7410,1
3957,33,11,2,117,5287,1
3958,33,11,3,118,2454,0
3959,33,11,4,119,2724,1
3960,33,11,5,120,8332,0
3961,34,11,1,1,7431,1
3962,34,11,2,2,10345,1
3963,34,11,3,3,4977,0
3964,34,11,4,4,3525,1
3965,34,11,5,5,10435,0
3966,34,3,1,6,9834,1
3967,34,3,2,7,6820,0
3968,34,3,3,8,5327,1
3969,34,3,4,9,8352,0
3970,34,3,5,10,7261,0
3971,34,12,1,11,7681,1
3972,34,12,2,12,5868,1
3973,34,12,3,13,2704,1
3974,34,12,4,14,2874,1
3975,34,12,5,15,6078,0
3976,34,21,1,16,9984,0
3977,34,21,2,17,8081,1
3978,34,21,3,18,2533,1
3979,34,21,4,19,7270,0
3980,34,21,5,20,4416,1
3981,34,2,1,21,6880,1
3982,34,2,2,22,6660,0
3983,34,2,3,23,5879,0
3984,34,2,4,24,2955,0
3985,34,2,5,25,10175,1
3986,34,7,1,26,9734,1
3987,34,7,2,27,7410,1
3988,34,7,3,28,4346,1
3989,34,7,4,29,4696,0
3990,34,7,5,30,9723,0
3991,34,15,1,31,7300,1
3992,34,15,2,32,3224,1
3993,34,15,3,33,1932,0
3994,34,15,4,34,2764,0
3995,34,15,5,35,3546,0
3996,34,19,1,36,6660,1
3997,34,19,2,37,8853,0
3998,34,19,3,38,2543,0
3999,34,19,4,39,7070,0
4000,34,19,5,40,7261,0
4001,34,8,1,41,7822,1
4002,34,8,2,42,4286,0
4003,34,8,3,43,2433,1
4004,34,8,4,44,2884,1
4005,34,8,5,45,12468,0
4006,34,13,1,46,6620,1
4007,34,13,2,47,8192,1
4008,34,13,3,48,3054,1
4009,34,13,4,49,3866,1
4010,34,13,5,50,4066,1
4011,34,5,1,51,8041,0
4012,34,5,2,52,6549,1
4013,34,5,3,53,2213,0
4014,34,5,4,54,5618,1
4015,34,5,5,55,9483,1
4016,34,16,1,56,4927,1
4017,34,16,2,57,4527,1
4018,34,16,3,58,2053,1
4019,34,16,4,59,2774,1
4020,34,16,5,60,3705,1
4021,34,6,1,61,4786,0
4022,34,6,2,62,2914,1
4023,34,6,3,63,2343,1
4024,34,6,4,64,2294,1
4025,34,6,5,65,7010,0
4026,34,23,1,66,7971,1
4027,34,23,2,67,8543,0
4028,34,23,3,68,1983,0
4029,34,23,4,69,3064,0
4030,34,23,5,70,7821,0
4031,34,22,1,71,4987,0
4032,34,22,2,72,4817,0
4033,34,22,3,73,2484,0
4034,34,22,4,74,3795,1
4035,34,22,5,75,3134,0
4036,34,10,1,76,10825,0
4037,34,10,2,77,4166,0
4038,34,10,3,78,1783,1
4039,34,10,4,79,2844,1
4040,34,10,5,80,8892,0
4041,34,24,1,81,6840,0
4042,34,24,2,82,3655,0
4043,34,24,3,83,1542,0
4044,34,24,4,84,4727,0
4045,34,24,5,85,4817,1
4046,34,9,1,86,7241,0
4047,34,9,2,87,6860,1
4048,34,9,3,88,2724,0
4049,34,9,4,89,2414,0
4050,34,9,5,90,7882,1
4051,34,18,1,91,6720,1
4052,34,18,2,92,6189,1
4053,34,18,3,93,3695,0
4054,34,18,4,94,6649,1
4055,34,18,5,95,4987,0
4056,34,20,1,96,7291,0
4057,34,20,2,97,6199,0
4058,34,20,3,98,2494,0
4059,34,20,4,99,4366,0
4060,34,20,5,100,4847,1
4061,34,14,1,101,10325,0
4062,34,14,2,102,5447,0
4063,34,14,3,103,3124,0
4064,34,14,4,104,4757,0
4065,34,14,5,105,4576,0
4066,34,1,1,106,8523,1
4067,34,1,2,107,8532,1
4068,34,1,3,108,3034,0
4069,34,1,4,109,2895,1
4070,34,1,5,110,7581,0
4071,34,4,1,111,7832,0
4072,34,4,2,112,8512,0
4073,34,4,3,113,3045,1
4074,34,4,4,114,3355,0
4075,34,4,5,115,8912,1
4076,34,17,1,116,4526,0
4077,34,17,2,117,4717,1
4078,34,17,3,118,4226,1
4079,34,17,4,119,2183,1
4080,34,17,5,120,3715,0
4081,35,1,1,1,4226,1
4082,35,1,2,2,5297,1
4083,35,1,3,3,4607,0
4084,35,1,4,4,3034,1
4085,35,1,5,5,5989,0
4086,35,12,1,6,3204,1
4087,35,12,2,7,3826,1
4088,35,12,3,8,2514,1
4089,35,12,4,9,1573,1
4090,35,12,5,10,6610,0
4091,35,19,1,11,5848,1
4092,35,19,2,12,8583,0
4093,35,19,3,13,1832,0
4094,35,19,4,14,4346,0
4095,35,19,5,15,4106,0
4096,35,5,1,16,4457,1
4097,35,5,2,17,3876,1
4098,35,5,3,18,2483,0
4099,35,5,4,19,1953,1
4100,35,5,5,20,7010,1
4101,35,11,1,21,11126,0
4102,35,11,2,22,5918,1
4103,35,11,3,23,2103,0
4104,35,11,4,24,4917,1
4105,35,11,5,25,6650,0
4106,35,13,1,26,5088,1
4107,35,13,2,27,5488,1
4108,35,13,3,28,1953,1
4109,35,13,4,29,3244,1
4110,35,13,5,30,3425,1
4111,35,20,1,31,6799,0
4112,35,20,2,32,3525,0
4113,35,20,3,33,2174,0
4114,35,20,4,34,2954,0
4115,35,20,5,35,2895,1
4116,35,22,1,36,4557,0
4117,35,22,2,37,4196,0
4118,35,22,3,38,1713,0
4119,35,22,4,39,3255,1
4120,35,22,5,40,2935,0
4121,35,21,1,41,6409,0
4122,35,21,2,42,8072,1
4123,35,21,3,43,1603,1
4124,35,21,4,44,4737,0
4125,35,21,5,45,4186,1
4126,35,23,1,46,4076,1
4127,35,23,2,47,6469,0
4128,35,23,3,48,1432,0
4129,35,23,4,49,1803,0
4130,35,23,5,50,4386,0
4131,35,8,1,51,3104,1
4132,35,8,2,52,2554,0
4133,35,8,3,53,1402,1
4134,35,8,4,54,1502,1
4135,35,8,5,55,8372,1
4136,35,15,1,56,7541,1
4137,35,15,2,57,3144,1
4138,35,15,3,58,1312,0
4139,35,15,4,59,1943,0
4140,35,15,5,60,3104,0
4141,35,7,1,61,9694,1
4142,35,7,2,62,4586,1
4143,35,7,3,63,2093,1
4144,35,7,4,64,3575,0
4145,35,7,5,65,9413,0
4146,35,24,1,66,6499,0
4147,35,24,2,67,2524,0
4148,35,24,3,68,1552,0
4149,35,24,4,69,3275,0
4150,35,24,5,70,3946,1
4151,35,4,1,71,2424,0
4152,35,4,2,72,6389,0
4153,35,4,3,73,4457,1
4154,35,4,4,74,2183,0
4155,35,4,5,75,7100,1
4156,35,2,1,76,4747,1
4157,35,2,2,77,5208,0
4158,35,2,3,78,2504,0
4159,35,2,4,79,2554,0
4160,35,2,5,80,7661,1
4161,35,3,1,81,4606,1
4162,35,3,2,82,3976,0
4163,35,3,3,83,1463,1
4164,35,3,4,84,2734,0
4165,35,3,5,85,6790,0
4166,35,18,1,86,5508,1
4167,35,18,2,87,4356,1
4168,35,18,3,88,2133,0
4169,35,18,4,89,2885,1
4170,35,18,5,90,3234,0
4171,35,9,1,91,3716,0
4172,35,9,2,92,9012,1
4173,35,9,3,93,2784,0
4174,35,9,4,94,1923,0
4175,35,9,5,95,7831,1
4176,35,16,1,96,6940,1
4177,35,16,2,97,3575,1
4178,35,16,3,98,1542,1
4179,35,16,4,99,3035,1
4180,35,16,5,100,3254,1
4181,35,14,1,101,5628,0
4182,35,14,2,102,5228,0
4183,35,14,3,103,2194,0
4184,35,14,4,104,3084,0
4185,35,14,5,105,5809,0
4186,35,6,1,106,4647,0
4187,35,6,2,107,6389,1
4188,35,6,3,108,1342,1
4189,35,6,4,109,2113,1
4190,35,6,5,110,6209,0
4191,35,17,1,111,3796,0
4192,35,17,2,112,4386,1
4193,35,17,3,113,1953,1
4194,35,17,4,114,1813,1
4195,35,17,5,115,1862,0
4196,35,10,1,116,6049,0
4197,35,10,2,117,3255,0
4198,35,10,3,118,2905,1
4199,35,10,4,119,1823,1
4200,35,10,5,120,7771,0
4201,36,19,1,1,10455,1
4202,36,19,2,2,12648,0
4203,36,19,3,3,6209,0
4204,36,19,4,4,6900,0
4205,36,19,5,5,7872,0
4206,36,23,1,6,8052,1
4207,36,23,2,7,9174,0
4208,36,23,3,8,3125,0
4209,36,23,4,9,3866,0
4210,36,23,5,10,8192,0
4211,36,6,1,11,7301,0
4212,36,6,2,12,3555,1
4213,36,6,3,13,3265,1
4214,36,6,4,14,3245,1
4215,36,6,5,15,10576,0
4216,36,2,1,16,7530,1
4217,36,2,2,17,6780,0
4218,36,2,3,18,4296,0
4219,36,2,4,19,3365,0
4220,36,2,5,20,11797,1
4221,36,7,1,21,10135,1
4222,36,7,2,22,10085,1
4223,36,7,3,23,3454,1
4224,36,7,4,24,4877,0
4225,36,7,5,25,9824,0
4226,36,20,1,26,7351,0
4227,36,20,2,27,10485,0
4228,36,20,3,28,3195,0
4229,36,20,4,29,3746,0
4230,36,20,5,30,6479,1
4231,36,17,1,31,5258,0
4232,36,17,2,32,9714,1
4233,36,17,3,33,4166,1
4234,36,17,4,34,2413,1
4235,36,17,5,35,3996,0
4236,36,24,1,36,8132,0
4237,36,24,2,37,3465,0
4238,36,24,3,38,1643,0
4239,36,24,4,39,5067,0
4240,36,24,5,40,3955,1
4241,36,8,1,41,5848,1
4242,36,8,2,42,6028,0
4243,36,8,3,43,2664,1
4244,36,8,4,44,2053,1
4245,36,8,5,45,9174,0
4246,36,22,1,46,5378,0
4247,36,22,2,47,4737,0
4248,36,22,3,48,2444,0
4249,36,22,4,49,3575,1
4250,36,22,5,50,3345,0
4251,36,13,1,51,6349,1
4252,36,13,2,52,6509,1
4253,36,13,3,53,4437,1
4254,36,13,4,54,4156,1
4255,36,13,5,55,3855,1
4256,36,12,1,56,7150,1
4257,36,12,2,57,4266,1
4258,36,12,3,58,3055,1
4259,36,12,4,59,2784,1
4260,36,12,5,60,7180,0
4261,36,10,1,61,5428,0
4262,36,10,2,62,3725,0
4263,36,10,3,63,1943,1
4264,36,10,4,64,2584,1
4265,36,10,5,65,10966,0
4266,36,4,1,66,6429,0
4267,36,4,2,67,8111,0
4268,36,4,3,68,3695,1
4269,36,4,4,69,2573,0
4270,36,4,5,70,7411,1
4271,36,5,1,71,11787,1
4272,36,5,2,72,8082,1
4273,36,5,3,73,2774,0
4274,36,5,4,74,4386,1
4275,36,5,5,75,10415,1
4276,36,1,1,76,8241,1
4277,36,1,2,77,5458,1
4278,36,1,3,78,2213,0
4279,36,1,4,79,2814,1
4280,36,1,5,80,6620,0
4281,36,21,1,81,14872,0
4282,36,21,2,82,7891,1
4283,36,21,3,83,2073,1
4284,36,21,4,84,4857,0
4285,36,21,5,85,5679,1
4286,36,15,1,86,7041,1
4287,36,15,2,87,3445,1
4288,36,15,3,88,1613,0
4289,36,15,4,89,2494,0
4290,36,15,5,90,3966,0
4291,36,9,1,91,6749,0
4292,36,9,2,92,8753,1
4293,36,9,3,93,2824,0
4294,36,9,4,94,1902,0
4295,36,9,5,95,11427,1
4296,36,14,1,96,6158,0
4297,36,14,2,97,4737,0
4298,36,14,3,98,3035,0
4299,36,14,4,99,3755,0
4300,36,14,5,100,7010,0
4301,36,16,1,101,5648,1
4302,36,16,2,102,4507,1
4303,36,16,3,103,1813,1
4304,36,16,4,104,2563,1
4305,36,16,5,105,4186,1
4306,36,11,1,106,5839,1
4307,36,11,2,107,8923,1
4308,36,11,3,108,2583,0
4309,36,11,4,109,2363,1
4310,36,11,5,110,9313,0
4311,36,3,1,111,7851,1
4312,36,3,2,112,6028,0
4313,36,3,3,113,3395,1
4314,36,3,4,114,4697,0
4315,36,3,5,115,7982,0
4316,36,18,1,116,6069,1
4317,36,18,2,117,5308,1
4318,36,18,3,118,4496,0
4319,36,18,4,119,4977,1
4320,36,18,5,120,5107,0
4321,37,17,1,1,5348,0
4322,37,17,2,2,5828,1
4323,37,17,3,3,5318,1
4324,37,17,4,4,2824,1
4325,37,17,5,5,3104,0
4326,37,23,1,6,4987,1
4327,37,23,2,7,7581,0
4328,37,23,3,8,2624,0
4329,37,23,4,9,2584,0
4330,37,23,5,10,4907,0
4331,37,15,1,11,8302,1
4332,37,15,2,12,3234,1
4333,37,15,3,13,1722,0
4334,37,15,4,14,3204,0
4335,37,15,5,15,3555,0
4336,37,6,1,16,6409,0
4337,37,6,2,17,6879,1
4338,37,6,3,18,1763,1
4339,37,6,4,19,2193,1
4340,37,6,5,20,6429,0
4341,37,2,1,21,4827,1
4342,37,2,2,22,7000,0
4343,37,2,3,23,2744,0
4344,37,2,4,24,2554,0
4345,37,2,5,25,8533,1
4346,37,12,1,26,3765,1
4347,37,12,2,27,3525,1
4348,37,12,3,28,2454,1
4349,37,12,4,29,1793,1
4350,37,12,5,30,6259,0
4351,37,5,1,31,4396,1
4352,37,5,2,32,3725,1
4353,37,5,3,33,2444,0
4354,37,5,4,34,2093,1
4355,37,5,5,35,5327,1
4356,37,8,1,36,2945,1
4357,37,8,2,37,4306,1
4358,37,8,3,38,1733,0
4359,37,8,4,39,1743,1
4360,37,8,5,40,6719,0
4361,37,9,1,41,4006,0
4362,37,9,2,42,5128,1
4363,37,9,3,43,1813,0
4364,37,9,4,44,1983,0
4365,37,9,5,45,5788,1
4366,37,11,1,46,6530,1
4367,37,11,2,47,4286,1
4368,37,11,3,48,1973,0
4369,37,11,4,49,1813,1
4370,37,11,5,50,3415,0
4371,37,18,1,51,4166,1
4372,37,18,2,52,3404,1
4373,37,18,3,53,1953,0
4374,37,18,4,54,3255,1
4375,37,18,5,55,3886,0
4376,37,13,1,56,5277,1
4377,37,13,2,57,5779,1
4378,37,13,3,58,1812,1
4379,37,13,4,59,3555,1
4380,37,13,5,60,3695,1
4381,37,19,1,61,6910,1
4382,37,19,2,62,8943,0
4383,37,19,3,63,1682,0
4384,37,19,4,64,4536,0
4385,37,19,5,65,4256,0
4386,37,7,1,66,7040,1
4387,37,7,2,67,5508,1
4388,37,7,3,68,2153,1
4389,37,7,4,69,3395,0
4390,37,7,5,70,7431,0
4391,37,4,1,71,2364,0
4392,37,4,2,72,7071,0
4393,37,4,3,73,3575,1
4394,37,4,4,74,2254,0
4395,37,4,5,75,6349,1
4396,37,22,1,76,4206,0
4397,37,22,2,77,4236,0
4398,37,22,3,78,2283,0
4399,37,22,4,79,2524,1
4400,37,22,5,80,2734,0
4401,37,14,1,81,5307,0
4402,37,14,2,82,4767,0
4403,37,14,3,83,1943,0
4404,37,14,4,84,3185,0
4405,37,14,5,85,3725,0
4406,37,3,1,86,8643,1
4407,37,3,2,87,3935,0
4408,37,3,3,88,1332,1
4409,37,3,4,89,2834,0
4410,37,3,5,90,7180,0
4411,37,20,1,91,5939,0
4412,37,20,2,92,4176,0
4413,37,20,3,93,2043,0
4414,37,20,4,94,2604,0
4415,37,20,5,95,2914,1
4416,37,24,1,96,6740,0
4417,37,24,2,97,3285,0
4418,37,24,3,98,1292,0
4419,37,24,4,99,3585,0
4420,37,24,5,100,3505,1
4421,37,10,1,101,5919,0
4422,37,10,2,102,4086,0
4423,37,10,3,103,2633,1
4424,37,10,4,104,2403,1
4425,37,10,5,105,5238,0
4426,37,16,1,106,4036,1
4427,37,16,2,107,3465,1
4428,37,16,3,108,1713,1
4429,37,16,4,109,2403,1
4430,37,16,5,110,3425,1
4431,37,1,1,111,4516,1
4432,37,1,2,112,5087,1
4433,37,1,3,113,2524,0
4434,37,1,4,114,2323,1
4435,37,1,5,115,5448,0
4436,37,21,1,116,8382,0
4437,37,21,2,117,7581,1
4438,37,21,3,118,1763,1
4439,37,21,4,119,3525,0
4440,37,21,5,120,3214,1
4441,38,8,1,1,5578,1
4442,38,8,2,2,4847,0
4443,38,8,3,3,4366,1
4444,38,8,4,4,2643,1
4445,38,8,5,5,8853,0
4446,38,11,1,6,6188,1
4447,38,11,2,7,13569,1
4448,38,11,3,8,4116,0
4449,38,11,4,9,3595,1
4450,38,11,5,10,12407,0
4451,38,23,1,11,5628,1
4452,38,23,2,12,8652,0
4453,38,23,3,13,2564,0
4454,38,23,4,14,3024,0
4455,38,23,5,15,7360,0
4456,38,22,1,16,5668,0
4457,38,22,2,17,4726,0
4458,38,22,3,18,2403,0
4459,38,22,4,19,4196,1
4460,38,22,5,20,3425,0
4461,38,21,1,21,11296,0
4462,38,21,2,22,8051,1
4463,38,21,3,23,2463,1
4464,38,21,4,24,5257,0
4465,38,21,5,25,4967,1
4466,38,12,1,26,7260,1
4467,38,12,2,27,4566,1
4468,38,12,3,28,2764,1
4469,38,12,4,29,2694,1
4470,38,12,5,30,7161,0
4471,38,14,1,31,8332,0
4472,38,14,2,32,6349,0
4473,38,14,3,33,3635,0
4474,38,14,4,34,4146,0
4475,38,14,5,35,5618,0
4476,38,15,1,36,7100,1
4477,38,15,2,37,4496,1
4478,38,15,3,38,2234,0
4479,38,15,4,39,3365,0
4480,38,15,5,40,3916,0
4481,38,24,1,41,9694,0
4482,38,24,2,42,3685,0
4483,38,24,3,43,1602,0
4484,38,24,4,44,6870,0
4485,38,24,5,45,3896,1
4486,38,16,1,46,8953,1
4487,38,16,2,47,4987,1
